ADSNAME,STUDYID,SUBJID,USUBJID,PARAMCD,PARAM,AVAL,AVALU,AVISIT,AVISITN,BASE,CHG,R2BASE
adlb,17501,10001,1750110001,CALCIUM,Calcium (mg/dL) in Serum,9.448,mg/dL,Baseline,1,9.448,0,1
adlb,17501,10001,1750110001,CALCIUM,Calcium (mg/dL) in Serum,10.464,mg/dL,Visit 2,2,9.448,1.016,1.1075359864521592
adlb,17501,10001,1750110001,CALCIUM,Calcium (mg/dL) in Serum,11.482,mg/dL,Visit 3,3,9.448,2.033999999999999,1.2152836579170194
adlb,17501,10001,1750110001,CREAT,Creatinine (mg/dL) in Serum,1.647,mg/dL,Baseline,1,1.647,0,1
adlb,17501,10001,1750110001,CREAT,Creatinine (mg/dL) in Serum,2.663,mg/dL,Visit 2,2,1.647,1.0159999999999998,1.6168791742562234
adlb,17501,10001,1750110001,CREAT,Creatinine (mg/dL) in Serum,3.681,mg/dL,Visit 3,3,1.647,2.034,2.2349726775956285
adlb,17501,10001,1750110001,GGT,Gamma Glutamyl Transferase (U/L) in Serum,112.827,U/L,Baseline,1,112.827,0,1
adlb,17501,10001,1750110001,GGT,Gamma Glutamyl Transferase (U/L) in Serum,113.843,U/L,Visit 2,2,112.827,1.0160000000000053,1.0090049367615908
adlb,17501,10001,1750110001,GGT,Gamma Glutamyl Transferase (U/L) in Serum,114.861,U/L,Visit 3,3,112.827,2.034000000000006,1.0180275997766493
adlb,17501,10001,1750110001,HB,Hemoglobin (g/dL) in Blood,14.898,g/dL,Baseline,1,14.898,0,1
adlb,17501,10001,1750110001,HB,Hemoglobin (g/dL) in Blood,15.914,g/dL,Visit 2,2,14.898,1.016,1.0681970734326756
adlb,17501,10001,1750110001,HB,Hemoglobin (g/dL) in Blood,16.932,g/dL,Visit 3,3,14.898,2.033999999999999,1.1365283930728955
adlb,17501,10001,1750110001,HCT,Hematocrit (%) in Blood - Calculated,46.02,%,Baseline,1,46.02,0,1
adlb,17501,10001,1750110001,HCT,Hematocrit (%) in Blood - Calculated,47.036,%,Visit 2,2,46.02,1.0159999999999982,1.022077357670578
adlb,17501,10001,1750110001,HCT,Hematocrit (%) in Blood - Calculated,48.054,%,Visit 3,3,46.02,2.033999999999999,1.0441981747066493
adlb,17501,10001,1750110001,HDL,HDL Cholesterol (mg/dL) in Serum,34.508,mg/dL,Baseline,1,34.508,0,1
adlb,17501,10001,1750110001,HDL,HDL Cholesterol (mg/dL) in Serum,35.524,mg/dL,Visit 2,2,34.508,1.0159999999999982,1.0294424481279703
adlb,17501,10001,1750110001,HDL,HDL Cholesterol (mg/dL) in Serum,36.542,mg/dL,Visit 3,3,34.508,2.033999999999999,1.0589428538309957
adlb,17501,10001,1750110001,LDL,LDL Cholesterol (mg/dL) in Serum,73.517,mg/dL,Baseline,1,73.517,0,1
adlb,17501,10001,1750110001,LDL,LDL Cholesterol (mg/dL) in Serum,74.533,mg/dL,Visit 2,2,73.517,1.0160000000000053,1.0138199328046575
adlb,17501,10001,1750110001,LDL,LDL Cholesterol (mg/dL) in Serum,75.551,mg/dL,Visit 3,3,73.517,2.034000000000006,1.02766707020145
adlb,17501,10001,1750110001,MAGNES,Magnesium (mg/dL) in Serum,2.275,mg/dL,Baseline,1,2.275,0,1
adlb,17501,10001,1750110001,MAGNES,Magnesium (mg/dL) in Serum,3.291,mg/dL,Visit 2,2,2.275,1.016,1.4465934065934065
adlb,17501,10001,1750110001,MAGNES,Magnesium (mg/dL) in Serum,4.309,mg/dL,Visit 3,3,2.275,2.0340000000000003,1.8940659340659343
adlb,17501,10001,1750110001,POTASS,Potassium (mmol/L) in Serum,4.047,mmol/L,Baseline,1,4.047,0,1
adlb,17501,10001,1750110001,POTASS,Potassium (mmol/L) in Serum,5.063,mmol/L,Visit 2,2,4.047,1.016,1.2510501606127997
adlb,17501,10001,1750110001,POTASS,Potassium (mmol/L) in Serum,6.081,mmol/L,Visit 3,3,4.047,2.0340000000000007,1.5025945144551522
adlb,17501,10001,1750110001,SODIUM,Sodium (mmol/L) in Serum,139.301,mmol/L,Baseline,1,139.301,0,1
adlb,17501,10001,1750110001,SODIUM,Sodium (mmol/L) in Serum,140.317,mmol/L,Visit 2,2,139.301,1.0160000000000196,1.0072935585530616
adlb,17501,10001,1750110001,SODIUM,Sodium (mmol/L) in Serum,141.335,mmol/L,Visit 3,3,139.301,2.0340000000000202,1.0146014745048493
adlb,17501,10001,1750110001,URICAC,Urate (mg/dL) in Serum,9.068,mg/dL,Baseline,1,9.068,0,1
adlb,17501,10001,1750110001,URICAC,Urate (mg/dL) in Serum,10.084,mg/dL,Visit 2,2,9.068,1.016,1.1120423467137186
adlb,17501,10001,1750110001,URICAC,Urate (mg/dL) in Serum,11.102,mg/dL,Visit 3,3,9.068,2.0340000000000007,1.2243052492280548
adlb,17501,10002,1750110002,CALCIUM,Calcium (mg/dL) in Serum,9.75,mg/dL,Baseline,1,9.75,0,1
adlb,17501,10002,1750110002,CALCIUM,Calcium (mg/dL) in Serum,10.766,mg/dL,Visit 2,2,9.75,1.016,1.1042051282051282
adlb,17501,10002,1750110002,CALCIUM,Calcium (mg/dL) in Serum,11.784,mg/dL,Visit 3,3,9.75,2.0340000000000007,1.2086153846153846
adlb,17501,10002,1750110002,CREAT,Creatinine (mg/dL) in Serum,1.139,mg/dL,Baseline,1,1.139,0,1
adlb,17501,10002,1750110002,CREAT,Creatinine (mg/dL) in Serum,2.155,mg/dL,Visit 2,2,1.139,1.0159999999999998,1.8920105355575063
adlb,17501,10002,1750110002,CREAT,Creatinine (mg/dL) in Serum,3.173,mg/dL,Visit 3,3,1.139,2.034,2.785776997366111
adlb,17501,10002,1750110002,GGT,Gamma Glutamyl Transferase (U/L) in Serum,16.416,U/L,Baseline,1,16.416,0,1
adlb,17501,10002,1750110002,GGT,Gamma Glutamyl Transferase (U/L) in Serum,17.432,U/L,Visit 2,2,16.416,1.0159999999999982,1.0618908382066277
adlb,17501,10002,1750110002,GGT,Gamma Glutamyl Transferase (U/L) in Serum,18.45,U/L,Visit 3,3,16.416,2.033999999999999,1.1239035087719298
adlb,17501,10002,1750110002,HB,Hemoglobin (g/dL) in Blood,13.37,g/dL,Baseline,1,13.37,0,1
adlb,17501,10002,1750110002,HB,Hemoglobin (g/dL) in Blood,14.386,g/dL,Visit 2,2,13.37,1.016,1.0759910246821243
adlb,17501,10002,1750110002,HB,Hemoglobin (g/dL) in Blood,15.404,g/dL,Visit 3,3,13.37,2.0340000000000007,1.1521316379955124
adlb,17501,10002,1750110002,HCT,Hematocrit (%) in Blood - Calculated,38.543,%,Baseline,1,38.543,0,1
adlb,17501,10002,1750110002,HCT,Hematocrit (%) in Blood - Calculated,39.559,%,Visit 2,2,38.543,1.0159999999999982,1.0263601691617155
adlb,17501,10002,1750110002,HCT,Hematocrit (%) in Blood - Calculated,40.577,%,Visit 3,3,38.543,2.033999999999999,1.052772228420206
adlb,17501,10002,1750110002,HDL,HDL Cholesterol (mg/dL) in Serum,65.863,mg/dL,Baseline,1,65.863,0,1
adlb,17501,10002,1750110002,HDL,HDL Cholesterol (mg/dL) in Serum,66.879,mg/dL,Visit 2,2,65.863,1.0160000000000053,1.0154259599471631
adlb,17501,10002,1750110002,HDL,HDL Cholesterol (mg/dL) in Serum,67.897,mg/dL,Visit 3,3,65.863,2.034000000000006,1.0308822859572142
adlb,17501,10002,1750110002,LDL,LDL Cholesterol (mg/dL) in Serum,70.447,mg/dL,Baseline,1,70.447,0,1
adlb,17501,10002,1750110002,LDL,LDL Cholesterol (mg/dL) in Serum,71.463,mg/dL,Visit 2,2,70.447,1.0159999999999911,1.0144221897312873
adlb,17501,10002,1750110002,LDL,LDL Cholesterol (mg/dL) in Serum,72.481,mg/dL,Visit 3,3,70.447,2.033999999999992,1.028872769599841
adlb,17501,10002,1750110002,MAGNES,Magnesium (mg/dL) in Serum,1.807,mg/dL,Baseline,1,1.807,0,1
adlb,17501,10002,1750110002,MAGNES,Magnesium (mg/dL) in Serum,2.823,mg/dL,Visit 2,2,1.807,1.016,1.5622578859988931
adlb,17501,10002,1750110002,MAGNES,Magnesium (mg/dL) in Serum,3.841,mg/dL,Visit 3,3,1.807,2.0340000000000003,2.125622578859989
adlb,17501,10002,1750110002,POTASS,Potassium (mmol/L) in Serum,4.537,mmol/L,Baseline,1,4.537,0,1
adlb,17501,10002,1750110002,POTASS,Potassium (mmol/L) in Serum,5.552,mmol/L,Visit 2,2,4.537,1.0149999999999997,1.223716111968261
adlb,17501,10002,1750110002,POTASS,Potassium (mmol/L) in Serum,6.57,mmol/L,Visit 3,3,4.537,2.0330000000000004,1.448093453824113
adlb,17501,10002,1750110002,SODIUM,Sodium (mmol/L) in Serum,136.869,mmol/L,Baseline,1,136.869,0,1
adlb,17501,10002,1750110002,SODIUM,Sodium (mmol/L) in Serum,137.885,mmol/L,Visit 2,2,136.869,1.0159999999999911,1.0074231564488672
adlb,17501,10002,1750110002,SODIUM,Sodium (mmol/L) in Serum,138.903,mmol/L,Visit 3,3,136.869,2.033999999999992,1.0148609254104288
adlb,17501,10002,1750110002,URICAC,Urate (mg/dL) in Serum,6.582,mg/dL,Baseline,1,6.582,0,1
adlb,17501,10002,1750110002,URICAC,Urate (mg/dL) in Serum,7.598,mg/dL,Visit 2,2,6.582,1.016,1.1543603767851718
adlb,17501,10002,1750110002,URICAC,Urate (mg/dL) in Serum,8.616,mg/dL,Visit 3,3,6.582,2.034,1.3090246125797629
adlb,17501,10003,1750110003,CALCIUM,Calcium (mg/dL) in Serum,8.946,mg/dL,Baseline,1,8.946,0,1
adlb,17501,10003,1750110003,CALCIUM,Calcium (mg/dL) in Serum,9.962,mg/dL,Visit 2,2,8.946,1.016,1.1135703107534094
adlb,17501,10003,1750110003,CALCIUM,Calcium (mg/dL) in Serum,10.98,mg/dL,Visit 3,3,8.946,2.0340000000000007,1.227364185110664
adlb,17501,10003,1750110003,CREAT,Creatinine (mg/dL) in Serum,1.281,mg/dL,Baseline,1,1.281,0,1
adlb,17501,10003,1750110003,CREAT,Creatinine (mg/dL) in Serum,2.297,mg/dL,Visit 2,2,1.281,1.0160000000000002,1.793130366900859
adlb,17501,10003,1750110003,CREAT,Creatinine (mg/dL) in Serum,3.315,mg/dL,Visit 3,3,1.281,2.034,2.5878220140515222
adlb,17501,10003,1750110003,GGT,Gamma Glutamyl Transferase (U/L) in Serum,53.976,U/L,Baseline,1,53.976,0,1
adlb,17501,10003,1750110003,GGT,Gamma Glutamyl Transferase (U/L) in Serum,54.992,U/L,Visit 2,2,53.976,1.0159999999999982,1.0188231806728916
adlb,17501,10003,1750110003,GGT,Gamma Glutamyl Transferase (U/L) in Serum,56.01,U/L,Visit 3,3,53.976,2.033999999999999,1.037683414851045
adlb,17501,10003,1750110003,HB,Hemoglobin (g/dL) in Blood,11.727,g/dL,Baseline,1,11.727,0,1
adlb,17501,10003,1750110003,HB,Hemoglobin (g/dL) in Blood,12.743,g/dL,Visit 2,2,11.727,1.016,1.0866376737443506
adlb,17501,10003,1750110003,HB,Hemoglobin (g/dL) in Blood,13.761,g/dL,Visit 3,3,11.727,2.033999999999999,1.17344589409056
adlb,17501,10003,1750110003,HCT,Hematocrit (%) in Blood - Calculated,34.892,%,Baseline,1,34.892,0,1
adlb,17501,10003,1750110003,HCT,Hematocrit (%) in Blood - Calculated,35.908,%,Visit 2,2,34.892,1.0159999999999982,1.0291184225610455
adlb,17501,10003,1750110003,HCT,Hematocrit (%) in Blood - Calculated,36.926,%,Visit 3,3,34.892,2.033999999999999,1.0582941648515418
adlb,17501,10003,1750110003,HDL,HDL Cholesterol (mg/dL) in Serum,64.735,mg/dL,Baseline,1,64.735,0,1
adlb,17501,10003,1750110003,HDL,HDL Cholesterol (mg/dL) in Serum,65.751,mg/dL,Visit 2,2,64.735,1.0160000000000053,1.0156947555418245
adlb,17501,10003,1750110003,HDL,HDL Cholesterol (mg/dL) in Serum,66.769,mg/dL,Visit 3,3,64.735,2.034000000000006,1.0314204062717234
adlb,17501,10003,1750110003,LDL,LDL Cholesterol (mg/dL) in Serum,109.24,mg/dL,Baseline,1,109.24,0,1
adlb,17501,10003,1750110003,LDL,LDL Cholesterol (mg/dL) in Serum,110.256,mg/dL,Visit 2,2,109.24,1.0160000000000053,1.009300622482607
adlb,17501,10003,1750110003,LDL,LDL Cholesterol (mg/dL) in Serum,111.274,mg/dL,Visit 3,3,109.24,2.034000000000006,1.018619553277188
adlb,17501,10003,1750110003,MAGNES,Magnesium (mg/dL) in Serum,2.505,mg/dL,Baseline,1,2.505,0,1
adlb,17501,10003,1750110003,MAGNES,Magnesium (mg/dL) in Serum,3.521,mg/dL,Visit 2,2,2.505,1.016,1.4055888223552895
adlb,17501,10003,1750110003,MAGNES,Magnesium (mg/dL) in Serum,4.539,mg/dL,Visit 3,3,2.505,2.034,1.8119760479041915
adlb,17501,10003,1750110003,POTASS,Potassium (mmol/L) in Serum,5.011,mmol/L,Baseline,1,5.011,0,1
adlb,17501,10003,1750110003,POTASS,Potassium (mmol/L) in Serum,6.027,mmol/L,Visit 2,2,5.011,1.016,1.202753941329076
adlb,17501,10003,1750110003,POTASS,Potassium (mmol/L) in Serum,7.045,mmol/L,Visit 3,3,5.011,2.034,1.4059070045899023
adlb,17501,10003,1750110003,SODIUM,Sodium (mmol/L) in Serum,138.64,mmol/L,Baseline,1,138.64,0,1
adlb,17501,10003,1750110003,SODIUM,Sodium (mmol/L) in Serum,139.656,mmol/L,Visit 2,2,138.64,1.0160000000000196,1.00732833237161
adlb,17501,10003,1750110003,SODIUM,Sodium (mmol/L) in Serum,140.674,mmol/L,Visit 3,3,138.64,2.0340000000000202,1.0146710905943452
adlb,17501,10003,1750110003,URICAC,Urate (mg/dL) in Serum,8.092,mg/dL,Baseline,1,8.092,0,1
adlb,17501,10003,1750110003,URICAC,Urate (mg/dL) in Serum,9.108,mg/dL,Visit 2,2,8.092,1.016,1.125556104794859
adlb,17501,10003,1750110003,URICAC,Urate (mg/dL) in Serum,10.126,mg/dL,Visit 3,3,8.092,2.033999999999999,1.2513593672763221
adlb,17501,10004,1750110004,CALCIUM,Calcium (mg/dL) in Serum,9.627,mg/dL,Baseline,1,9.627,0,1
adlb,17501,10004,1750110004,CALCIUM,Calcium (mg/dL) in Serum,10.643,mg/dL,Visit 2,2,9.627,1.016,1.1055365118936324
adlb,17501,10004,1750110004,CALCIUM,Calcium (mg/dL) in Serum,11.661,mg/dL,Visit 3,3,9.627,2.033999999999999,1.2112807728264257
adlb,17501,10004,1750110004,CREAT,Creatinine (mg/dL) in Serum,1.278,mg/dL,Baseline,1,1.278,0,1
adlb,17501,10004,1750110004,CREAT,Creatinine (mg/dL) in Serum,2.294,mg/dL,Visit 2,2,1.278,1.016,1.7949921752738653
adlb,17501,10004,1750110004,CREAT,Creatinine (mg/dL) in Serum,3.312,mg/dL,Visit 3,3,1.278,2.034,2.5915492957746475
adlb,17501,10004,1750110004,GGT,Gamma Glutamyl Transferase (U/L) in Serum,43.624,U/L,Baseline,1,43.624,0,1
adlb,17501,10004,1750110004,GGT,Gamma Glutamyl Transferase (U/L) in Serum,44.64,U/L,Visit 2,2,43.624,1.0159999999999982,1.0232899321474418
adlb,17501,10004,1750110004,GGT,Gamma Glutamyl Transferase (U/L) in Serum,45.658,U/L,Visit 3,3,43.624,2.033999999999999,1.0466257106180084
adlb,17501,10004,1750110004,HB,Hemoglobin (g/dL) in Blood,12.295,g/dL,Baseline,1,12.295,0,1
adlb,17501,10004,1750110004,HB,Hemoglobin (g/dL) in Blood,13.311,g/dL,Visit 2,2,12.295,1.016,1.082635217568117
adlb,17501,10004,1750110004,HB,Hemoglobin (g/dL) in Blood,14.329,g/dL,Visit 3,3,12.295,2.0340000000000007,1.1654331028873526
adlb,17501,10004,1750110004,HCT,Hematocrit (%) in Blood - Calculated,37.189,%,Baseline,1,37.189,0,1
adlb,17501,10004,1750110004,HCT,Hematocrit (%) in Blood - Calculated,38.205,%,Visit 2,2,37.189,1.0159999999999982,1.0273199064239424
adlb,17501,10004,1750110004,HCT,Hematocrit (%) in Blood - Calculated,39.223,%,Visit 3,3,37.189,2.033999999999999,1.0546935921912393
adlb,17501,10004,1750110004,HDL,HDL Cholesterol (mg/dL) in Serum,66.461,mg/dL,Baseline,1,66.461,0,1
adlb,17501,10004,1750110004,HDL,HDL Cholesterol (mg/dL) in Serum,67.477,mg/dL,Visit 2,2,66.461,1.0160000000000053,1.0152871608913498
adlb,17501,10004,1750110004,HDL,HDL Cholesterol (mg/dL) in Serum,68.495,mg/dL,Visit 3,3,66.461,2.034000000000006,1.0306044146191
adlb,17501,10004,1750110004,LDL,LDL Cholesterol (mg/dL) in Serum,94.6,mg/dL,Baseline,1,94.6,0,1
adlb,17501,10004,1750110004,LDL,LDL Cholesterol (mg/dL) in Serum,95.616,mg/dL,Visit 2,2,94.6,1.0160000000000053,1.010739957716702
adlb,17501,10004,1750110004,LDL,LDL Cholesterol (mg/dL) in Serum,96.634,mg/dL,Visit 3,3,94.6,2.034000000000006,1.0215010570824525
adlb,17501,10004,1750110004,MAGNES,Magnesium (mg/dL) in Serum,1.997,mg/dL,Baseline,1,1.997,0,1
adlb,17501,10004,1750110004,MAGNES,Magnesium (mg/dL) in Serum,3.013,mg/dL,Visit 2,2,1.997,1.0159999999999998,1.5087631447170755
adlb,17501,10004,1750110004,MAGNES,Magnesium (mg/dL) in Serum,4.031,mg/dL,Visit 3,3,1.997,2.034,2.018527791687531
adlb,17501,10004,1750110004,POTASS,Potassium (mmol/L) in Serum,5.275,mmol/L,Baseline,1,5.275,0,1
adlb,17501,10004,1750110004,POTASS,Potassium (mmol/L) in Serum,6.291,mmol/L,Visit 2,2,5.275,1.016,1.19260663507109
adlb,17501,10004,1750110004,POTASS,Potassium (mmol/L) in Serum,7.309,mmol/L,Visit 3,3,5.275,2.034,1.3855924170616114
adlb,17501,10004,1750110004,SODIUM,Sodium (mmol/L) in Serum,134.709,mmol/L,Baseline,1,134.709,0,1
adlb,17501,10004,1750110004,SODIUM,Sodium (mmol/L) in Serum,135.724,mmol/L,Visit 2,2,134.709,1.0149999999999864,1.0075347601125388
adlb,17501,10004,1750110004,SODIUM,Sodium (mmol/L) in Serum,136.742,mmol/L,Visit 3,3,134.709,2.032999999999987,1.0150917904520114
adlb,17501,10004,1750110004,URICAC,Urate (mg/dL) in Serum,8.107,mg/dL,Baseline,1,8.107,0,1
adlb,17501,10004,1750110004,URICAC,Urate (mg/dL) in Serum,9.122,mg/dL,Visit 2,2,8.107,1.0150000000000006,1.1252004440606884
adlb,17501,10004,1750110004,URICAC,Urate (mg/dL) in Serum,10.14,mg/dL,Visit 3,3,8.107,2.0330000000000013,1.2507709386949553
adlb,17501,10005,1750110005,CALCIUM,Calcium (mg/dL) in Serum,10.089,mg/dL,Baseline,1,10.089,0,1
adlb,17501,10005,1750110005,CALCIUM,Calcium (mg/dL) in Serum,11.105,mg/dL,Visit 2,2,10.089,1.016,1.1007037367429875
adlb,17501,10005,1750110005,CALCIUM,Calcium (mg/dL) in Serum,12.123,mg/dL,Visit 3,3,10.089,2.033999999999999,1.2016057091882246
adlb,17501,10005,1750110005,CREAT,Creatinine (mg/dL) in Serum,1.152,mg/dL,Baseline,1,1.152,0,1
adlb,17501,10005,1750110005,CREAT,Creatinine (mg/dL) in Serum,2.168,mg/dL,Visit 2,2,1.152,1.0160000000000002,1.8819444444444446
adlb,17501,10005,1750110005,CREAT,Creatinine (mg/dL) in Serum,3.185,mg/dL,Visit 3,3,1.152,2.0330000000000004,2.7647569444444446
adlb,17501,10005,1750110005,GGT,Gamma Glutamyl Transferase (U/L) in Serum,55.878,U/L,Baseline,1,55.878,0,1
adlb,17501,10005,1750110005,GGT,Gamma Glutamyl Transferase (U/L) in Serum,56.894,U/L,Visit 2,2,55.878,1.0159999999999982,1.018182468950213
adlb,17501,10005,1750110005,GGT,Gamma Glutamyl Transferase (U/L) in Serum,57.912,U/L,Visit 3,3,55.878,2.033999999999999,1.036400730162139
adlb,17501,10005,1750110005,HB,Hemoglobin (g/dL) in Blood,13.582,g/dL,Baseline,1,13.582,0,1
adlb,17501,10005,1750110005,HB,Hemoglobin (g/dL) in Blood,14.598,g/dL,Visit 2,2,13.582,1.016,1.0748048888234427
adlb,17501,10005,1750110005,HB,Hemoglobin (g/dL) in Blood,15.616,g/dL,Visit 3,3,13.582,2.033999999999999,1.1497570313650418
adlb,17501,10005,1750110005,HCT,Hematocrit (%) in Blood - Calculated,42.063,%,Baseline,1,42.063,0,1
adlb,17501,10005,1750110005,HCT,Hematocrit (%) in Blood - Calculated,43.079,%,Visit 2,2,42.063,1.0159999999999982,1.0241542448232412
adlb,17501,10005,1750110005,HCT,Hematocrit (%) in Blood - Calculated,44.097,%,Visit 3,3,42.063,2.033999999999999,1.0483560373725127
adlb,17501,10005,1750110005,HDL,HDL Cholesterol (mg/dL) in Serum,53.63,mg/dL,Baseline,1,53.63,0,1
adlb,17501,10005,1750110005,HDL,HDL Cholesterol (mg/dL) in Serum,54.646,mg/dL,Visit 2,2,53.63,1.0159999999999982,1.0189446205482007
adlb,17501,10005,1750110005,HDL,HDL Cholesterol (mg/dL) in Serum,55.664,mg/dL,Visit 3,3,53.63,2.033999999999999,1.0379265336565355
adlb,17501,10005,1750110005,LDL,LDL Cholesterol (mg/dL) in Serum,65.785,mg/dL,Baseline,1,65.785,0,1
adlb,17501,10005,1750110005,LDL,LDL Cholesterol (mg/dL) in Serum,66.801,mg/dL,Visit 2,2,65.785,1.0160000000000053,1.0154442502090142
adlb,17501,10005,1750110005,LDL,LDL Cholesterol (mg/dL) in Serum,67.819,mg/dL,Visit 3,3,65.785,2.034000000000006,1.030918902485369
adlb,17501,10005,1750110005,MAGNES,Magnesium (mg/dL) in Serum,2.339,mg/dL,Baseline,1,2.339,0,1
adlb,17501,10005,1750110005,MAGNES,Magnesium (mg/dL) in Serum,3.355,mg/dL,Visit 2,2,2.339,1.016,1.4343736639589568
adlb,17501,10005,1750110005,MAGNES,Magnesium (mg/dL) in Serum,4.373,mg/dL,Visit 3,3,2.339,2.0340000000000003,1.8696023941855495
adlb,17501,10005,1750110005,POTASS,Potassium (mmol/L) in Serum,4.309,mmol/L,Baseline,1,4.309,0,1
adlb,17501,10005,1750110005,POTASS,Potassium (mmol/L) in Serum,5.325,mmol/L,Visit 2,2,4.309,1.016,1.23578556509631
adlb,17501,10005,1750110005,POTASS,Potassium (mmol/L) in Serum,6.343,mmol/L,Visit 3,3,4.309,2.034,1.4720352750058017
adlb,17501,10005,1750110005,SODIUM,Sodium (mmol/L) in Serum,132.547,mmol/L,Baseline,1,132.547,0,1
adlb,17501,10005,1750110005,SODIUM,Sodium (mmol/L) in Serum,133.563,mmol/L,Visit 2,2,132.547,1.0159999999999911,1.0076652055497295
adlb,17501,10005,1750110005,SODIUM,Sodium (mmol/L) in Serum,134.581,mmol/L,Visit 3,3,132.547,2.033999999999992,1.0153455000867617
adlb,17501,10005,1750110005,URICAC,Urate (mg/dL) in Serum,11.494,mg/dL,Baseline,1,11.494,0,1
adlb,17501,10005,1750110005,URICAC,Urate (mg/dL) in Serum,12.51,mg/dL,Visit 2,2,11.494,1.016,1.0883939446667827
adlb,17501,10005,1750110005,URICAC,Urate (mg/dL) in Serum,13.528,mg/dL,Visit 3,3,11.494,2.0340000000000007,1.1769618931616497
adlb,17501,10006,1750110006,CALCIUM,Calcium (mg/dL) in Serum,9.318,mg/dL,Baseline,1,9.318,0,1
adlb,17501,10006,1750110006,CALCIUM,Calcium (mg/dL) in Serum,10.334,mg/dL,Visit 2,2,9.318,1.016,1.1090362738785147
adlb,17501,10006,1750110006,CALCIUM,Calcium (mg/dL) in Serum,11.352,mg/dL,Visit 3,3,9.318,2.0340000000000007,1.218287186091436
adlb,17501,10006,1750110006,CREAT,Creatinine (mg/dL) in Serum,1.179,mg/dL,Baseline,1,1.179,0,1
adlb,17501,10006,1750110006,CREAT,Creatinine (mg/dL) in Serum,2.195,mg/dL,Visit 2,2,1.179,1.0159999999999998,1.8617472434266324
adlb,17501,10006,1750110006,CREAT,Creatinine (mg/dL) in Serum,3.213,mg/dL,Visit 3,3,1.179,2.034,2.7251908396946565
adlb,17501,10006,1750110006,GGT,Gamma Glutamyl Transferase (U/L) in Serum,31.814,U/L,Baseline,1,31.814,0,1
adlb,17501,10006,1750110006,GGT,Gamma Glutamyl Transferase (U/L) in Serum,32.83,U/L,Visit 2,2,31.814,1.0159999999999982,1.0319356258251084
adlb,17501,10006,1750110006,GGT,Gamma Glutamyl Transferase (U/L) in Serum,33.848,U/L,Visit 3,3,31.814,2.033999999999999,1.0639341170553844
adlb,17501,10006,1750110006,HB,Hemoglobin (g/dL) in Blood,15.854,g/dL,Baseline,1,15.854,0,1
adlb,17501,10006,1750110006,HB,Hemoglobin (g/dL) in Blood,16.87,g/dL,Visit 2,2,15.854,1.0160000000000018,1.0640847735587236
adlb,17501,10006,1750110006,HB,Hemoglobin (g/dL) in Blood,17.888,g/dL,Visit 3,3,15.854,2.0340000000000025,1.1282956982464996
adlb,17501,10006,1750110006,HCT,Hematocrit (%) in Blood - Calculated,47.655,%,Baseline,1,47.655,0,1
adlb,17501,10006,1750110006,HCT,Hematocrit (%) in Blood - Calculated,48.671,%,Visit 2,2,47.655,1.0159999999999982,1.021319903472878
adlb,17501,10006,1750110006,HCT,Hematocrit (%) in Blood - Calculated,49.689,%,Visit 3,3,47.655,2.033999999999999,1.0426817752596789
adlb,17501,10006,1750110006,HDL,HDL Cholesterol (mg/dL) in Serum,77.177,mg/dL,Baseline,1,77.177,0,1
adlb,17501,10006,1750110006,HDL,HDL Cholesterol (mg/dL) in Serum,78.193,mg/dL,Visit 2,2,77.177,1.0159999999999911,1.0131645438407815
adlb,17501,10006,1750110006,HDL,HDL Cholesterol (mg/dL) in Serum,79.211,mg/dL,Visit 3,3,77.177,2.033999999999992,1.0263550021379426
adlb,17501,10006,1750110006,LDL,LDL Cholesterol (mg/dL) in Serum,51.732,mg/dL,Baseline,1,51.732,0,1
adlb,17501,10006,1750110006,LDL,LDL Cholesterol (mg/dL) in Serum,52.748,mg/dL,Visit 2,2,51.732,1.0159999999999982,1.0196396814350885
adlb,17501,10006,1750110006,LDL,LDL Cholesterol (mg/dL) in Serum,53.766,mg/dL,Visit 3,3,51.732,2.033999999999999,1.0393180236604036
adlb,17501,10006,1750110006,MAGNES,Magnesium (mg/dL) in Serum,2.11,mg/dL,Baseline,1,2.11,0,1
adlb,17501,10006,1750110006,MAGNES,Magnesium (mg/dL) in Serum,3.126,mg/dL,Visit 2,2,2.11,1.016,1.4815165876777252
adlb,17501,10006,1750110006,MAGNES,Magnesium (mg/dL) in Serum,4.144,mg/dL,Visit 3,3,2.11,2.0340000000000003,1.9639810426540285
adlb,17501,10006,1750110006,POTASS,Potassium (mmol/L) in Serum,4.049,mmol/L,Baseline,1,4.049,0,1
adlb,17501,10006,1750110006,POTASS,Potassium (mmol/L) in Serum,5.065,mmol/L,Visit 2,2,4.049,1.016,1.2509261546060755
adlb,17501,10006,1750110006,POTASS,Potassium (mmol/L) in Serum,6.083,mmol/L,Visit 3,3,4.049,2.034,1.5023462583353913
adlb,17501,10006,1750110006,SODIUM,Sodium (mmol/L) in Serum,137.665,mmol/L,Baseline,1,137.665,0,1
adlb,17501,10006,1750110006,SODIUM,Sodium (mmol/L) in Serum,138.681,mmol/L,Visit 2,2,137.665,1.0160000000000196,1.007380234627538
adlb,17501,10006,1750110006,SODIUM,Sodium (mmol/L) in Serum,139.699,mmol/L,Visit 3,3,137.665,2.0340000000000202,1.0147749972759963
adlb,17501,10006,1750110006,URICAC,Urate (mg/dL) in Serum,6.102,mg/dL,Baseline,1,6.102,0,1
adlb,17501,10006,1750110006,URICAC,Urate (mg/dL) in Serum,7.118,mg/dL,Visit 2,2,6.102,1.016,1.1665027859718125
adlb,17501,10006,1750110006,URICAC,Urate (mg/dL) in Serum,8.136,mg/dL,Visit 3,3,6.102,2.033999999999999,1.333333333333333
adlb,17501,10007,1750110007,CALCIUM,Calcium (mg/dL) in Serum,9.25,mg/dL,Baseline,1,9.25,0,1
adlb,17501,10007,1750110007,CALCIUM,Calcium (mg/dL) in Serum,10.266,mg/dL,Visit 2,2,9.25,1.016,1.1098378378378377
adlb,17501,10007,1750110007,CALCIUM,Calcium (mg/dL) in Serum,11.284,mg/dL,Visit 3,3,9.25,2.0340000000000007,1.219891891891892
adlb,17501,10007,1750110007,CREAT,Creatinine (mg/dL) in Serum,2.123,mg/dL,Baseline,1,2.123,0,1
adlb,17501,10007,1750110007,CREAT,Creatinine (mg/dL) in Serum,3.139,mg/dL,Visit 2,2,2.123,1.0159999999999996,1.4785680640602918
adlb,17501,10007,1750110007,CREAT,Creatinine (mg/dL) in Serum,4.157,mg/dL,Visit 3,3,2.123,2.034,1.9580781912388128
adlb,17501,10007,1750110007,GGT,Gamma Glutamyl Transferase (U/L) in Serum,94.338,U/L,Baseline,1,94.338,0,1
adlb,17501,10007,1750110007,GGT,Gamma Glutamyl Transferase (U/L) in Serum,95.354,U/L,Visit 2,2,94.338,1.0160000000000053,1.0107697852403061
adlb,17501,10007,1750110007,GGT,Gamma Glutamyl Transferase (U/L) in Serum,96.372,U/L,Visit 3,3,94.338,2.034000000000006,1.0215607708452585
adlb,17501,10007,1750110007,HB,Hemoglobin (g/dL) in Blood,11.386,g/dL,Baseline,1,11.386,0,1
adlb,17501,10007,1750110007,HB,Hemoglobin (g/dL) in Blood,12.402,g/dL,Visit 2,2,11.386,1.016,1.0892323906551906
adlb,17501,10007,1750110007,HB,Hemoglobin (g/dL) in Blood,13.42,g/dL,Visit 3,3,11.386,2.0340000000000007,1.1786404356226947
adlb,17501,10007,1750110007,HCT,Hematocrit (%) in Blood - Calculated,34.344,%,Baseline,1,34.344,0,1
adlb,17501,10007,1750110007,HCT,Hematocrit (%) in Blood - Calculated,35.36,%,Visit 2,2,34.344,1.0159999999999982,1.0295830421616585
adlb,17501,10007,1750110007,HCT,Hematocrit (%) in Blood - Calculated,36.378,%,Visit 3,3,34.344,2.033999999999999,1.0592243186582808
adlb,17501,10007,1750110007,HDL,HDL Cholesterol (mg/dL) in Serum,58.855,mg/dL,Baseline,1,58.855,0,1
adlb,17501,10007,1750110007,HDL,HDL Cholesterol (mg/dL) in Serum,59.871,mg/dL,Visit 2,2,58.855,1.0160000000000053,1.0172627644210348
adlb,17501,10007,1750110007,HDL,HDL Cholesterol (mg/dL) in Serum,60.889,mg/dL,Visit 3,3,58.855,2.034000000000006,1.034559510661796
adlb,17501,10007,1750110007,LDL,LDL Cholesterol (mg/dL) in Serum,70.197,mg/dL,Baseline,1,70.197,0,1
adlb,17501,10007,1750110007,LDL,LDL Cholesterol (mg/dL) in Serum,71.212,mg/dL,Visit 2,2,70.197,1.0150000000000006,1.014459307377808
adlb,17501,10007,1750110007,LDL,LDL Cholesterol (mg/dL) in Serum,72.23,mg/dL,Visit 3,3,70.197,2.0330000000000013,1.0289613516247134
adlb,17501,10007,1750110007,MAGNES,Magnesium (mg/dL) in Serum,2.379,mg/dL,Baseline,1,2.379,0,1
adlb,17501,10007,1750110007,MAGNES,Magnesium (mg/dL) in Serum,3.395,mg/dL,Visit 2,2,2.379,1.016,1.4270701975620008
adlb,17501,10007,1750110007,MAGNES,Magnesium (mg/dL) in Serum,4.413,mg/dL,Visit 3,3,2.379,2.0340000000000003,1.8549810844892813
adlb,17501,10007,1750110007,POTASS,Potassium (mmol/L) in Serum,4.267,mmol/L,Baseline,1,4.267,0,1
adlb,17501,10007,1750110007,POTASS,Potassium (mmol/L) in Serum,5.283,mmol/L,Visit 2,2,4.267,1.016,1.2381063979376612
adlb,17501,10007,1750110007,POTASS,Potassium (mmol/L) in Serum,6.301,mmol/L,Visit 3,3,4.267,2.034,1.4766815092570893
adlb,17501,10007,1750110007,SODIUM,Sodium (mmol/L) in Serum,134.448,mmol/L,Baseline,1,134.448,0,1
adlb,17501,10007,1750110007,SODIUM,Sodium (mmol/L) in Serum,135.464,mmol/L,Visit 2,2,134.448,1.0159999999999911,1.0075568249434725
adlb,17501,10007,1750110007,SODIUM,Sodium (mmol/L) in Serum,136.482,mmol/L,Visit 3,3,134.448,2.033999999999992,1.0151285255265976
adlb,17501,10007,1750110007,URICAC,Urate (mg/dL) in Serum,8.248,mg/dL,Baseline,1,8.248,0,1
adlb,17501,10007,1750110007,URICAC,Urate (mg/dL) in Serum,9.264,mg/dL,Visit 2,2,8.248,1.016,1.1231813773035888
adlb,17501,10007,1750110007,URICAC,Urate (mg/dL) in Serum,10.282,mg/dL,Visit 3,3,8.248,2.0340000000000007,1.2466052376333658
adlb,17501,10008,1750110008,CALCIUM,Calcium (mg/dL) in Serum,10.141,mg/dL,Baseline,1,10.141,0,1
adlb,17501,10008,1750110008,CALCIUM,Calcium (mg/dL) in Serum,11.157,mg/dL,Visit 2,2,10.141,1.016,1.1001873582486934
adlb,17501,10008,1750110008,CALCIUM,Calcium (mg/dL) in Serum,12.175,mg/dL,Visit 3,3,10.141,2.0340000000000007,1.2005719357065379
adlb,17501,10008,1750110008,CREAT,Creatinine (mg/dL) in Serum,1.326,mg/dL,Baseline,1,1.326,0,1
adlb,17501,10008,1750110008,CREAT,Creatinine (mg/dL) in Serum,2.342,mg/dL,Visit 2,2,1.326,1.016,1.7662141779788838
adlb,17501,10008,1750110008,CREAT,Creatinine (mg/dL) in Serum,3.36,mg/dL,Visit 3,3,1.326,2.034,2.5339366515837103
adlb,17501,10008,1750110008,GGT,Gamma Glutamyl Transferase (U/L) in Serum,103.013,U/L,Baseline,1,103.013,0,1
adlb,17501,10008,1750110008,GGT,Gamma Glutamyl Transferase (U/L) in Serum,104.029,U/L,Visit 2,2,103.013,1.0159999999999911,1.0098628328463397
adlb,17501,10008,1750110008,GGT,Gamma Glutamyl Transferase (U/L) in Serum,105.047,U/L,Visit 3,3,103.013,2.033999999999992,1.0197450807179675
adlb,17501,10008,1750110008,HB,Hemoglobin (g/dL) in Blood,12.682,g/dL,Baseline,1,12.682,0,1
adlb,17501,10008,1750110008,HB,Hemoglobin (g/dL) in Blood,13.698,g/dL,Visit 2,2,12.682,1.016,1.0801135467591862
adlb,17501,10008,1750110008,HB,Hemoglobin (g/dL) in Blood,14.716,g/dL,Visit 3,3,12.682,2.033999999999999,1.1603847973505754
adlb,17501,10008,1750110008,HCT,Hematocrit (%) in Blood - Calculated,39.722,%,Baseline,1,39.722,0,1
adlb,17501,10008,1750110008,HCT,Hematocrit (%) in Blood - Calculated,40.738,%,Visit 2,2,39.722,1.0159999999999982,1.0255777654700167
adlb,17501,10008,1750110008,HCT,Hematocrit (%) in Blood - Calculated,41.756,%,Visit 3,3,39.722,2.033999999999999,1.0512058808720608
adlb,17501,10008,1750110008,HDL,HDL Cholesterol (mg/dL) in Serum,21.945,mg/dL,Baseline,1,21.945,0,1
adlb,17501,10008,1750110008,HDL,HDL Cholesterol (mg/dL) in Serum,22.961,mg/dL,Visit 2,2,21.945,1.0159999999999982,1.0462975620870356
adlb,17501,10008,1750110008,HDL,HDL Cholesterol (mg/dL) in Serum,23.979,mg/dL,Visit 3,3,21.945,2.033999999999999,1.0926862611073136
adlb,17501,10008,1750110008,LDL,LDL Cholesterol (mg/dL) in Serum,95.758,mg/dL,Baseline,1,95.758,0,1
adlb,17501,10008,1750110008,LDL,LDL Cholesterol (mg/dL) in Serum,96.774,mg/dL,Visit 2,2,95.758,1.0160000000000053,1.0106100795755968
adlb,17501,10008,1750110008,LDL,LDL Cholesterol (mg/dL) in Serum,97.792,mg/dL,Visit 3,3,95.758,2.034000000000006,1.0212410451346103
adlb,17501,10008,1750110008,MAGNES,Magnesium (mg/dL) in Serum,1.956,mg/dL,Baseline,1,1.956,0,1
adlb,17501,10008,1750110008,MAGNES,Magnesium (mg/dL) in Serum,2.972,mg/dL,Visit 2,2,1.956,1.016,1.5194274028629857
adlb,17501,10008,1750110008,MAGNES,Magnesium (mg/dL) in Serum,3.99,mg/dL,Visit 3,3,1.956,2.0340000000000003,2.039877300613497
adlb,17501,10008,1750110008,POTASS,Potassium (mmol/L) in Serum,4.608,mmol/L,Baseline,1,4.608,0,1
adlb,17501,10008,1750110008,POTASS,Potassium (mmol/L) in Serum,5.624,mmol/L,Visit 2,2,4.608,1.016,1.2204861111111112
adlb,17501,10008,1750110008,POTASS,Potassium (mmol/L) in Serum,6.642,mmol/L,Visit 3,3,4.608,2.0340000000000007,1.4414062500000002
adlb,17501,10008,1750110008,SODIUM,Sodium (mmol/L) in Serum,139.164,mmol/L,Baseline,1,139.164,0,1
adlb,17501,10008,1750110008,SODIUM,Sodium (mmol/L) in Serum,140.18,mmol/L,Visit 2,2,139.164,1.0160000000000196,1.0073007386967896
adlb,17501,10008,1750110008,SODIUM,Sodium (mmol/L) in Serum,141.198,mmol/L,Visit 3,3,139.164,2.0340000000000202,1.0146158489264467
adlb,17501,10008,1750110008,URICAC,Urate (mg/dL) in Serum,11.899,mg/dL,Baseline,1,11.899,0,1
adlb,17501,10008,1750110008,URICAC,Urate (mg/dL) in Serum,12.915,mg/dL,Visit 2,2,11.899,1.016,1.085385326498025
adlb,17501,10008,1750110008,URICAC,Urate (mg/dL) in Serum,13.933,mg/dL,Visit 3,3,11.899,2.0340000000000007,1.1709387343474242
adlb,17501,10009,1750110009,CALCIUM,Calcium (mg/dL) in Serum,9.022,mg/dL,Baseline,1,9.022,0,1
adlb,17501,10009,1750110009,CALCIUM,Calcium (mg/dL) in Serum,11.056,mg/dL,Visit 3,3,9.022,2.033999999999999,1.2254489026823319
adlb,17501,10009,1750110009,CREAT,Creatinine (mg/dL) in Serum,1.445,mg/dL,Baseline,1,1.445,0,1
adlb,17501,10009,1750110009,CREAT,Creatinine (mg/dL) in Serum,2.461,mg/dL,Visit 2,2,1.445,1.0159999999999998,1.703114186851211
adlb,17501,10009,1750110009,CREAT,Creatinine (mg/dL) in Serum,3.479,mg/dL,Visit 3,3,1.445,2.034,2.4076124567474047
adlb,17501,10009,1750110009,GGT,Gamma Glutamyl Transferase (U/L) in Serum,40.79,U/L,Baseline,1,40.79,0,1
adlb,17501,10009,1750110009,GGT,Gamma Glutamyl Transferase (U/L) in Serum,41.806,U/L,Visit 2,2,40.79,1.0159999999999982,1.024908065702378
adlb,17501,10009,1750110009,GGT,Gamma Glutamyl Transferase (U/L) in Serum,42.824,U/L,Visit 3,3,40.79,2.033999999999999,1.0498651630301543
adlb,17501,10009,1750110009,HB,Hemoglobin (g/dL) in Blood,13.764,g/dL,Baseline,1,13.764,0,1
adlb,17501,10009,1750110009,HB,Hemoglobin (g/dL) in Blood,14.78,g/dL,Visit 2,2,13.764,1.016,1.073815751235106
adlb,17501,10009,1750110009,HB,Hemoglobin (g/dL) in Blood,15.798,g/dL,Visit 3,3,13.764,2.0340000000000007,1.1477768090671316
adlb,17501,10009,1750110009,HCT,Hematocrit (%) in Blood - Calculated,42.196,%,Baseline,1,42.196,0,1
adlb,17501,10009,1750110009,HCT,Hematocrit (%) in Blood - Calculated,43.212,%,Visit 2,2,42.196,1.0160000000000053,1.0240781116693527
adlb,17501,10009,1750110009,HCT,Hematocrit (%) in Blood - Calculated,44.23,%,Visit 3,3,42.196,2.033999999999999,1.048203621196322
adlb,17501,10009,1750110009,HDL,HDL Cholesterol (mg/dL) in Serum,27.412,mg/dL,Baseline,1,27.412,0,1
adlb,17501,10009,1750110009,HDL,HDL Cholesterol (mg/dL) in Serum,28.428,mg/dL,Visit 2,2,27.412,1.0160000000000018,1.0370640595359697
adlb,17501,10009,1750110009,HDL,HDL Cholesterol (mg/dL) in Serum,29.446,mg/dL,Visit 3,3,27.412,2.0340000000000025,1.0742010798190575
adlb,17501,10009,1750110009,LDL,LDL Cholesterol (mg/dL) in Serum,76.844,mg/dL,Baseline,1,76.844,0,1
adlb,17501,10009,1750110009,LDL,LDL Cholesterol (mg/dL) in Serum,77.86,mg/dL,Visit 2,2,76.844,1.0160000000000053,1.0132215917963667
adlb,17501,10009,1750110009,LDL,LDL Cholesterol (mg/dL) in Serum,78.878,mg/dL,Visit 3,3,76.844,2.034000000000006,1.026469210348238
adlb,17501,10009,1750110009,MAGNES,Magnesium (mg/dL) in Serum,2.136,mg/dL,Baseline,1,2.136,0,1
adlb,17501,10009,1750110009,MAGNES,Magnesium (mg/dL) in Serum,3.152,mg/dL,Visit 2,2,2.136,1.016,1.4756554307116105
adlb,17501,10009,1750110009,MAGNES,Magnesium (mg/dL) in Serum,4.17,mg/dL,Visit 3,3,2.136,2.034,1.9522471910112358
adlb,17501,10009,1750110009,POTASS,Potassium (mmol/L) in Serum,3.929,mmol/L,Baseline,1,3.929,0,1
adlb,17501,10009,1750110009,POTASS,Potassium (mmol/L) in Serum,4.945,mmol/L,Visit 2,2,3.929,1.0160000000000005,1.2585899720030544
adlb,17501,10009,1750110009,POTASS,Potassium (mmol/L) in Serum,5.963,mmol/L,Visit 3,3,3.929,2.0340000000000003,1.5176889793840673
adlb,17501,10009,1750110009,SODIUM,Sodium (mmol/L) in Serum,132.084,mmol/L,Baseline,1,132.084,0,1
adlb,17501,10009,1750110009,SODIUM,Sodium (mmol/L) in Serum,133.1,mmol/L,Visit 2,2,132.084,1.0159999999999911,1.0076920747403166
adlb,17501,10009,1750110009,SODIUM,Sodium (mmol/L) in Serum,134.118,mmol/L,Visit 3,3,132.084,2.033999999999992,1.0153992913600436
adlb,17501,10009,1750110009,URICAC,Urate (mg/dL) in Serum,7.688,mg/dL,Baseline,1,7.688,0,1
adlb,17501,10009,1750110009,URICAC,Urate (mg/dL) in Serum,8.704,mg/dL,Visit 2,2,7.688,1.016000000000001,1.1321540062434965
adlb,17501,10009,1750110009,URICAC,Urate (mg/dL) in Serum,9.722,mg/dL,Visit 3,3,7.688,2.034,1.2645681581685744
adlb,17501,10010,1750110010,CALCIUM,Calcium (mg/dL) in Serum,9.281,mg/dL,Baseline,1,9.281,0,1
adlb,17501,10010,1750110010,CALCIUM,Calcium (mg/dL) in Serum,10.296,mg/dL,Visit 2,2,9.281,1.0149999999999988,1.1093632151707788
adlb,17501,10010,1750110010,CALCIUM,Calcium (mg/dL) in Serum,11.314,mg/dL,Visit 3,3,9.281,2.0329999999999995,1.2190496713716195
adlb,17501,10010,1750110010,CREAT,Creatinine (mg/dL) in Serum,1.04,mg/dL,Baseline,1,1.04,0,1
adlb,17501,10010,1750110010,CREAT,Creatinine (mg/dL) in Serum,2.055,mg/dL,Visit 2,2,1.04,1.0150000000000001,1.9759615384615385
adlb,17501,10010,1750110010,CREAT,Creatinine (mg/dL) in Serum,3.073,mg/dL,Visit 3,3,1.04,2.033,2.9548076923076922
adlb,17501,10010,1750110010,GGT,Gamma Glutamyl Transferase (U/L) in Serum,19.808,U/L,Baseline,1,19.808,0,1
adlb,17501,10010,1750110010,GGT,Gamma Glutamyl Transferase (U/L) in Serum,20.824,U/L,Visit 2,2,19.808,1.0160000000000018,1.0512924071082392
adlb,17501,10010,1750110010,GGT,Gamma Glutamyl Transferase (U/L) in Serum,21.842,U/L,Visit 3,3,19.808,2.033999999999999,1.1026857835218093
adlb,17501,10010,1750110010,HB,Hemoglobin (g/dL) in Blood,14.155,g/dL,Baseline,1,14.155,0,1
adlb,17501,10010,1750110010,HB,Hemoglobin (g/dL) in Blood,15.171,g/dL,Visit 2,2,14.155,1.016,1.0717767573295656
adlb,17501,10010,1750110010,HB,Hemoglobin (g/dL) in Blood,16.189,g/dL,Visit 3,3,14.155,2.0340000000000007,1.14369480748852
adlb,17501,10010,1750110010,HCT,Hematocrit (%) in Blood - Calculated,40.902,%,Baseline,1,40.902,0,1
adlb,17501,10010,1750110010,HCT,Hematocrit (%) in Blood - Calculated,41.918,%,Visit 2,2,40.902,1.0159999999999982,1.024839861131485
adlb,17501,10010,1750110010,HCT,Hematocrit (%) in Blood - Calculated,42.936,%,Visit 3,3,40.902,2.033999999999999,1.049728619627402
adlb,17501,10010,1750110010,HDL,HDL Cholesterol (mg/dL) in Serum,37.539,mg/dL,Baseline,1,37.539,0,1
adlb,17501,10010,1750110010,HDL,HDL Cholesterol (mg/dL) in Serum,38.555,mg/dL,Visit 2,2,37.539,1.0159999999999982,1.0270651855403714
adlb,17501,10010,1750110010,HDL,HDL Cholesterol (mg/dL) in Serum,39.573,mg/dL,Visit 3,3,37.539,2.033999999999999,1.0541836490050347
adlb,17501,10010,1750110010,LDL,LDL Cholesterol (mg/dL) in Serum,74.49,mg/dL,Baseline,1,74.49,0,1
adlb,17501,10010,1750110010,LDL,LDL Cholesterol (mg/dL) in Serum,75.506,mg/dL,Visit 2,2,74.49,1.0160000000000053,1.013639414686535
adlb,17501,10010,1750110010,LDL,LDL Cholesterol (mg/dL) in Serum,76.524,mg/dL,Visit 3,3,74.49,2.034000000000006,1.0273056786145793
adlb,17501,10010,1750110010,MAGNES,Magnesium (mg/dL) in Serum,2.003,mg/dL,Baseline,1,2.003,0,1
adlb,17501,10010,1750110010,MAGNES,Magnesium (mg/dL) in Serum,3.019,mg/dL,Visit 2,2,2.003,1.016,1.507239141288068
adlb,17501,10010,1750110010,MAGNES,Magnesium (mg/dL) in Serum,4.037,mg/dL,Visit 3,3,2.003,2.034,2.0154767848227655
adlb,17501,10010,1750110010,POTASS,Potassium (mmol/L) in Serum,4.401,mmol/L,Baseline,1,4.401,0,1
adlb,17501,10010,1750110010,POTASS,Potassium (mmol/L) in Serum,5.417,mmol/L,Visit 2,2,4.401,1.016,1.2308566234946603
adlb,17501,10010,1750110010,POTASS,Potassium (mmol/L) in Serum,6.435,mmol/L,Visit 3,3,4.401,2.034,1.4621676891615543
adlb,17501,10010,1750110010,SODIUM,Sodium (mmol/L) in Serum,136.452,mmol/L,Baseline,1,136.452,0,1
adlb,17501,10010,1750110010,SODIUM,Sodium (mmol/L) in Serum,137.468,mmol/L,Visit 2,2,136.452,1.0159999999999911,1.0074458417612053
adlb,17501,10010,1750110010,SODIUM,Sodium (mmol/L) in Serum,138.486,mmol/L,Visit 3,3,136.452,2.033999999999992,1.014906340691232
adlb,17501,10010,1750110010,URICAC,Urate (mg/dL) in Serum,7.746,mg/dL,Baseline,1,7.746,0,1
adlb,17501,10010,1750110010,URICAC,Urate (mg/dL) in Serum,8.762,mg/dL,Visit 2,2,7.746,1.016,1.131164471985541
adlb,17501,10010,1750110010,URICAC,Urate (mg/dL) in Serum,9.78,mg/dL,Visit 3,3,7.746,2.033999999999999,1.2625871417505807
adlb,17501,10011,1750110011,CALCIUM,Calcium (mg/dL) in Serum,9.645,mg/dL,Baseline,1,9.645,0,1
adlb,17501,10011,1750110011,CALCIUM,Calcium (mg/dL) in Serum,10.661,mg/dL,Visit 2,2,9.645,1.016,1.1053395541731468
adlb,17501,10011,1750110011,CALCIUM,Calcium (mg/dL) in Serum,11.679,mg/dL,Visit 3,3,9.645,2.0340000000000007,1.210886469673406
adlb,17501,10011,1750110011,CREAT,Creatinine (mg/dL) in Serum,1.205,mg/dL,Baseline,1,1.205,0,1
adlb,17501,10011,1750110011,CREAT,Creatinine (mg/dL) in Serum,2.221,mg/dL,Visit 2,2,1.205,1.016,1.8431535269709542
adlb,17501,10011,1750110011,CREAT,Creatinine (mg/dL) in Serum,3.239,mg/dL,Visit 3,3,1.205,2.034,2.687966804979253
adlb,17501,10011,1750110011,GGT,Gamma Glutamyl Transferase (U/L) in Serum,75.006,U/L,Baseline,1,75.006,0,1
adlb,17501,10011,1750110011,GGT,Gamma Glutamyl Transferase (U/L) in Serum,76.022,U/L,Visit 2,2,75.006,1.0160000000000053,1.013545583020025
adlb,17501,10011,1750110011,GGT,Gamma Glutamyl Transferase (U/L) in Serum,77.04,U/L,Visit 3,3,75.006,2.034000000000006,1.0271178305735542
adlb,17501,10011,1750110011,HB,Hemoglobin (g/dL) in Blood,11.574,g/dL,Baseline,1,11.574,0,1
adlb,17501,10011,1750110011,HB,Hemoglobin (g/dL) in Blood,12.59,g/dL,Visit 2,2,11.574,1.016,1.0877829618109556
adlb,17501,10011,1750110011,HB,Hemoglobin (g/dL) in Blood,13.608,g/dL,Visit 3,3,11.574,2.0340000000000007,1.1757387247278384
adlb,17501,10011,1750110011,HCT,Hematocrit (%) in Blood - Calculated,35.269,%,Baseline,1,35.269,0,1
adlb,17501,10011,1750110011,HCT,Hematocrit (%) in Blood - Calculated,36.285,%,Visit 2,2,35.269,1.0159999999999982,1.028807167767728
adlb,17501,10011,1750110011,HCT,Hematocrit (%) in Blood - Calculated,37.303,%,Visit 3,3,35.269,2.033999999999999,1.0576710425586209
adlb,17501,10011,1750110011,HDL,HDL Cholesterol (mg/dL) in Serum,25.998,mg/dL,Baseline,1,25.998,0,1
adlb,17501,10011,1750110011,HDL,HDL Cholesterol (mg/dL) in Serum,27.014,mg/dL,Visit 2,2,25.998,1.0159999999999982,1.039079929225325
adlb,17501,10011,1750110011,HDL,HDL Cholesterol (mg/dL) in Serum,28.032,mg/dL,Visit 3,3,25.998,2.033999999999999,1.0782367874451881
adlb,17501,10011,1750110011,LDL,LDL Cholesterol (mg/dL) in Serum,27.351,mg/dL,Baseline,1,27.351,0,1
adlb,17501,10011,1750110011,LDL,LDL Cholesterol (mg/dL) in Serum,28.367,mg/dL,Visit 2,2,27.351,1.0160000000000018,1.037146722240503
adlb,17501,10011,1750110011,LDL,LDL Cholesterol (mg/dL) in Serum,29.385,mg/dL,Visit 3,3,27.351,2.0340000000000025,1.0743665679499836
adlb,17501,10011,1750110011,MAGNES,Magnesium (mg/dL) in Serum,1.955,mg/dL,Baseline,1,1.955,0,1
adlb,17501,10011,1750110011,MAGNES,Magnesium (mg/dL) in Serum,2.971,mg/dL,Visit 2,2,1.955,1.016,1.519693094629156
adlb,17501,10011,1750110011,MAGNES,Magnesium (mg/dL) in Serum,3.989,mg/dL,Visit 3,3,1.955,2.034,2.040409207161125
adlb,17501,10011,1750110011,POTASS,Potassium (mmol/L) in Serum,3.632,mmol/L,Baseline,1,3.632,0,1
adlb,17501,10011,1750110011,POTASS,Potassium (mmol/L) in Serum,4.648,mmol/L,Visit 2,2,3.632,1.0159999999999996,1.279735682819383
adlb,17501,10011,1750110011,POTASS,Potassium (mmol/L) in Serum,5.666,mmol/L,Visit 3,3,3.632,2.0340000000000003,1.5600220264317182
adlb,17501,10011,1750110011,SODIUM,Sodium (mmol/L) in Serum,143.895,mmol/L,Baseline,1,143.895,0,1
adlb,17501,10011,1750110011,SODIUM,Sodium (mmol/L) in Serum,144.911,mmol/L,Visit 2,2,143.895,1.0159999999999911,1.007060703985545
adlb,17501,10011,1750110011,SODIUM,Sodium (mmol/L) in Serum,145.929,mmol/L,Visit 3,3,143.895,2.033999999999992,1.0141353069946835
adlb,17501,10011,1750110011,URICAC,Urate (mg/dL) in Serum,10.264,mg/dL,Baseline,1,10.264,0,1
adlb,17501,10011,1750110011,URICAC,Urate (mg/dL) in Serum,11.28,mg/dL,Visit 2,2,10.264,1.016,1.0989867498051442
adlb,17501,10011,1750110011,URICAC,Urate (mg/dL) in Serum,12.298,mg/dL,Visit 3,3,10.264,2.0340000000000007,1.1981683554169915
adlb,17501,10012,1750110012,CALCIUM,Calcium (mg/dL) in Serum,9.858,mg/dL,Baseline,1,9.858,0,1
adlb,17501,10012,1750110012,CALCIUM,Calcium (mg/dL) in Serum,10.874,mg/dL,Visit 2,2,9.858,1.016,1.1030635017244876
adlb,17501,10012,1750110012,CALCIUM,Calcium (mg/dL) in Serum,11.892,mg/dL,Visit 3,3,9.858,2.033999999999999,1.2063298843578818
adlb,17501,10012,1750110012,CREAT,Creatinine (mg/dL) in Serum,1.227,mg/dL,Baseline,1,1.227,0,1
adlb,17501,10012,1750110012,CREAT,Creatinine (mg/dL) in Serum,2.243,mg/dL,Visit 2,2,1.227,1.0159999999999998,1.8280358598207007
adlb,17501,10012,1750110012,CREAT,Creatinine (mg/dL) in Serum,3.261,mg/dL,Visit 3,3,1.227,2.034,2.6577017114914425
adlb,17501,10012,1750110012,GGT,Gamma Glutamyl Transferase (U/L) in Serum,31.139,U/L,Baseline,1,31.139,0,1
adlb,17501,10012,1750110012,GGT,Gamma Glutamyl Transferase (U/L) in Serum,32.155,U/L,Visit 2,2,31.139,1.0160000000000018,1.0326278942804843
adlb,17501,10012,1750110012,GGT,Gamma Glutamyl Transferase (U/L) in Serum,33.173,U/L,Visit 3,3,31.139,2.0340000000000025,1.065320016699316
adlb,17501,10012,1750110012,HB,Hemoglobin (g/dL) in Blood,13.317,g/dL,Baseline,1,13.317,0,1
adlb,17501,10012,1750110012,HB,Hemoglobin (g/dL) in Blood,14.332,g/dL,Visit 2,2,13.317,1.0150000000000006,1.0762183675001877
adlb,17501,10012,1750110012,HCT,Hematocrit (%) in Blood - Calculated,40.898,%,Baseline,1,40.898,0,1
adlb,17501,10012,1750110012,HCT,Hematocrit (%) in Blood - Calculated,41.914,%,Visit 2,2,40.898,1.0159999999999982,1.0248422905765562
adlb,17501,10012,1750110012,HCT,Hematocrit (%) in Blood - Calculated,42.932,%,Visit 3,3,40.898,2.033999999999999,1.0497334832999168
adlb,17501,10012,1750110012,HDL,HDL Cholesterol (mg/dL) in Serum,25.947,mg/dL,Baseline,1,25.947,0,1
adlb,17501,10012,1750110012,HDL,HDL Cholesterol (mg/dL) in Serum,26.963,mg/dL,Visit 2,2,25.947,1.0160000000000018,1.0391567425906656
adlb,17501,10012,1750110012,HDL,HDL Cholesterol (mg/dL) in Serum,27.981,mg/dL,Visit 3,3,25.947,2.0340000000000025,1.0783905653832815
adlb,17501,10012,1750110012,LDL,LDL Cholesterol (mg/dL) in Serum,127.718,mg/dL,Baseline,1,127.718,0,1
adlb,17501,10012,1750110012,LDL,LDL Cholesterol (mg/dL) in Serum,128.734,mg/dL,Visit 2,2,127.718,1.0160000000000053,1.0079550259164722
adlb,17501,10012,1750110012,LDL,LDL Cholesterol (mg/dL) in Serum,129.752,mg/dL,Visit 3,3,127.718,2.034000000000006,1.01592571133278
adlb,17501,10012,1750110012,MAGNES,Magnesium (mg/dL) in Serum,1.948,mg/dL,Baseline,1,1.948,0,1
adlb,17501,10012,1750110012,MAGNES,Magnesium (mg/dL) in Serum,2.964,mg/dL,Visit 2,2,1.948,1.016,1.5215605749486654
adlb,17501,10012,1750110012,MAGNES,Magnesium (mg/dL) in Serum,3.982,mg/dL,Visit 3,3,1.948,2.0340000000000003,2.0441478439425054
adlb,17501,10012,1750110012,POTASS,Potassium (mmol/L) in Serum,4.587,mmol/L,Baseline,1,4.587,0,1
adlb,17501,10012,1750110012,POTASS,Potassium (mmol/L) in Serum,5.603,mmol/L,Visit 2,2,4.587,1.016,1.2214955308480488
adlb,17501,10012,1750110012,POTASS,Potassium (mmol/L) in Serum,6.621,mmol/L,Visit 3,3,4.587,2.0340000000000007,1.4434270765206019
adlb,17501,10012,1750110012,SODIUM,Sodium (mmol/L) in Serum,136.843,mmol/L,Baseline,1,136.843,0,1
adlb,17501,10012,1750110012,SODIUM,Sodium (mmol/L) in Serum,137.859,mmol/L,Visit 2,2,136.843,1.0160000000000196,1.0074245668393709
adlb,17501,10012,1750110012,SODIUM,Sodium (mmol/L) in Serum,138.877,mmol/L,Visit 3,3,136.843,2.0340000000000202,1.0148637489677954
adlb,17501,10012,1750110012,URICAC,Urate (mg/dL) in Serum,6.831,mg/dL,Baseline,1,6.831,0,1
adlb,17501,10012,1750110012,URICAC,Urate (mg/dL) in Serum,7.847,mg/dL,Visit 2,2,6.831,1.016,1.1487337139511054
adlb,17501,10012,1750110012,URICAC,Urate (mg/dL) in Serum,8.865,mg/dL,Visit 3,3,6.831,2.034,1.297760210803689
adlb,17501,10013,1750110013,CALCIUM,Calcium (mg/dL) in Serum,9.129,mg/dL,Baseline,1,9.129,0,1
adlb,17501,10013,1750110013,CALCIUM,Calcium (mg/dL) in Serum,10.145,mg/dL,Visit 2,2,9.129,1.016,1.1112936794829664
adlb,17501,10013,1750110013,CALCIUM,Calcium (mg/dL) in Serum,11.163,mg/dL,Visit 3,3,9.129,2.0340000000000007,1.222806441012159
adlb,17501,10013,1750110013,CREAT,Creatinine (mg/dL) in Serum,1.05,mg/dL,Baseline,1,1.05,0,1
adlb,17501,10013,1750110013,CREAT,Creatinine (mg/dL) in Serum,2.066,mg/dL,Visit 2,2,1.05,1.0159999999999998,1.9676190476190474
adlb,17501,10013,1750110013,CREAT,Creatinine (mg/dL) in Serum,3.084,mg/dL,Visit 3,3,1.05,2.034,2.9371428571428573
adlb,17501,10013,1750110013,GGT,Gamma Glutamyl Transferase (U/L) in Serum,15.577,U/L,Baseline,1,15.577,0,1
adlb,17501,10013,1750110013,GGT,Gamma Glutamyl Transferase (U/L) in Serum,16.593,U/L,Visit 2,2,15.577,1.016,1.065224369262374
adlb,17501,10013,1750110013,GGT,Gamma Glutamyl Transferase (U/L) in Serum,17.611,U/L,Visit 3,3,15.577,2.0340000000000007,1.13057713295243
adlb,17501,10013,1750110013,HB,Hemoglobin (g/dL) in Blood,13.056,g/dL,Baseline,1,13.056,0,1
adlb,17501,10013,1750110013,HB,Hemoglobin (g/dL) in Blood,14.072,g/dL,Visit 2,2,13.056,1.016,1.0778186274509804
adlb,17501,10013,1750110013,HB,Hemoglobin (g/dL) in Blood,15.09,g/dL,Visit 3,3,13.056,2.0340000000000007,1.1557904411764706
adlb,17501,10013,1750110013,HCT,Hematocrit (%) in Blood - Calculated,39.39,%,Baseline,1,39.39,0,1
adlb,17501,10013,1750110013,HCT,Hematocrit (%) in Blood - Calculated,40.406,%,Visit 2,2,39.39,1.0159999999999982,1.0257933485656257
adlb,17501,10013,1750110013,HCT,Hematocrit (%) in Blood - Calculated,41.424,%,Visit 3,3,39.39,2.033999999999999,1.0516374714394516
adlb,17501,10013,1750110013,HDL,HDL Cholesterol (mg/dL) in Serum,54.11,mg/dL,Baseline,1,54.11,0,1
adlb,17501,10013,1750110013,HDL,HDL Cholesterol (mg/dL) in Serum,55.126,mg/dL,Visit 2,2,54.11,1.0159999999999982,1.0187765662539272
adlb,17501,10013,1750110013,HDL,HDL Cholesterol (mg/dL) in Serum,56.144,mg/dL,Visit 3,3,54.11,2.033999999999999,1.0375900942524487
adlb,17501,10013,1750110013,LDL,LDL Cholesterol (mg/dL) in Serum,47.482,mg/dL,Baseline,1,47.482,0,1
adlb,17501,10013,1750110013,LDL,LDL Cholesterol (mg/dL) in Serum,48.498,mg/dL,Visit 2,2,47.482,1.0159999999999982,1.0213975822416916
adlb,17501,10013,1750110013,LDL,LDL Cholesterol (mg/dL) in Serum,49.516,mg/dL,Visit 3,3,47.482,2.033999999999999,1.0428372857082684
adlb,17501,10013,1750110013,MAGNES,Magnesium (mg/dL) in Serum,2.297,mg/dL,Baseline,1,2.297,0,1
adlb,17501,10013,1750110013,MAGNES,Magnesium (mg/dL) in Serum,3.313,mg/dL,Visit 2,2,2.297,1.016,1.4423160644318676
adlb,17501,10013,1750110013,MAGNES,Magnesium (mg/dL) in Serum,4.331,mg/dL,Visit 3,3,2.297,2.0340000000000003,1.8855028297779712
adlb,17501,10013,1750110013,POTASS,Potassium (mmol/L) in Serum,4.481,mmol/L,Baseline,1,4.481,0,1
adlb,17501,10013,1750110013,POTASS,Potassium (mmol/L) in Serum,5.497,mmol/L,Visit 2,2,4.481,1.016,1.2267351037714795
adlb,17501,10013,1750110013,POTASS,Potassium (mmol/L) in Serum,6.515,mmol/L,Visit 3,3,4.481,2.034,1.4539165364873912
adlb,17501,10013,1750110013,SODIUM,Sodium (mmol/L) in Serum,139.896,mmol/L,Baseline,1,139.896,0,1
adlb,17501,10013,1750110013,SODIUM,Sodium (mmol/L) in Serum,140.912,mmol/L,Visit 2,2,139.896,1.0160000000000196,1.0072625378852864
adlb,17501,10013,1750110013,SODIUM,Sodium (mmol/L) in Serum,141.93,mmol/L,Visit 3,3,139.896,2.0340000000000202,1.0145393721049925
adlb,17501,10013,1750110013,URICAC,Urate (mg/dL) in Serum,8.147,mg/dL,Baseline,1,8.147,0,1
adlb,17501,10013,1750110013,URICAC,Urate (mg/dL) in Serum,9.163,mg/dL,Visit 2,2,8.147,1.016,1.124708481649687
adlb,17501,10013,1750110013,URICAC,Urate (mg/dL) in Serum,10.18,mg/dL,Visit 3,3,8.147,2.0329999999999995,1.2495397078679267
adlb,17501,10014,1750110014,CALCIUM,Calcium (mg/dL) in Serum,9.618,mg/dL,Baseline,1,9.618,0,1
adlb,17501,10014,1750110014,CALCIUM,Calcium (mg/dL) in Serum,10.634,mg/dL,Visit 2,2,9.618,1.016,1.1056352672073195
adlb,17501,10014,1750110014,CALCIUM,Calcium (mg/dL) in Serum,11.652,mg/dL,Visit 3,3,9.618,2.033999999999999,1.2114784778540235
adlb,17501,10014,1750110014,CREAT,Creatinine (mg/dL) in Serum,1.354,mg/dL,Baseline,1,1.354,0,1
adlb,17501,10014,1750110014,CREAT,Creatinine (mg/dL) in Serum,2.37,mg/dL,Visit 2,2,1.354,1.016,1.7503692762186114
adlb,17501,10014,1750110014,CREAT,Creatinine (mg/dL) in Serum,3.388,mg/dL,Visit 3,3,1.354,2.034,2.5022156573116687
adlb,17501,10014,1750110014,GGT,Gamma Glutamyl Transferase (U/L) in Serum,15.143,U/L,Baseline,1,15.143,0,1
adlb,17501,10014,1750110014,GGT,Gamma Glutamyl Transferase (U/L) in Serum,16.159,U/L,Visit 2,2,15.143,1.0159999999999982,1.0670937066631445
adlb,17501,10014,1750110014,GGT,Gamma Glutamyl Transferase (U/L) in Serum,17.177,U/L,Visit 3,3,15.143,2.033999999999999,1.1343194875520042
adlb,17501,10014,1750110014,HB,Hemoglobin (g/dL) in Blood,15.518,g/dL,Baseline,1,15.518,0,1
adlb,17501,10014,1750110014,HB,Hemoglobin (g/dL) in Blood,16.534,g/dL,Visit 2,2,15.518,1.0159999999999982,1.0654723546848819
adlb,17501,10014,1750110014,HB,Hemoglobin (g/dL) in Blood,17.552,g/dL,Visit 3,3,15.518,2.033999999999999,1.1310735919577264
adlb,17501,10014,1750110014,HCT,Hematocrit (%) in Blood - Calculated,48.062,%,Baseline,1,48.062,0,1
adlb,17501,10014,1750110014,HCT,Hematocrit (%) in Blood - Calculated,49.078,%,Visit 2,2,48.062,1.0160000000000053,1.0211393616578588
adlb,17501,10014,1750110014,HCT,Hematocrit (%) in Blood - Calculated,50.096,%,Visit 3,3,48.062,2.033999999999999,1.0423203362323665
adlb,17501,10014,1750110014,HDL,HDL Cholesterol (mg/dL) in Serum,33.328,mg/dL,Baseline,1,33.328,0,1
adlb,17501,10014,1750110014,HDL,HDL Cholesterol (mg/dL) in Serum,34.344,mg/dL,Visit 2,2,33.328,1.0159999999999982,1.0304848775804127
adlb,17501,10014,1750110014,HDL,HDL Cholesterol (mg/dL) in Serum,35.362,mg/dL,Visit 3,3,33.328,2.033999999999999,1.0610297647623619
adlb,17501,10014,1750110014,LDL,LDL Cholesterol (mg/dL) in Serum,77.892,mg/dL,Baseline,1,77.892,0,1
adlb,17501,10014,1750110014,LDL,LDL Cholesterol (mg/dL) in Serum,78.908,mg/dL,Visit 2,2,77.892,1.0160000000000053,1.0130437015354594
adlb,17501,10014,1750110014,LDL,LDL Cholesterol (mg/dL) in Serum,79.926,mg/dL,Visit 3,3,77.892,2.034000000000006,1.0261130796487445
adlb,17501,10014,1750110014,MAGNES,Magnesium (mg/dL) in Serum,2.28,mg/dL,Baseline,1,2.28,0,1
adlb,17501,10014,1750110014,MAGNES,Magnesium (mg/dL) in Serum,3.296,mg/dL,Visit 2,2,2.28,1.016,1.4456140350877194
adlb,17501,10014,1750110014,MAGNES,Magnesium (mg/dL) in Serum,4.314,mg/dL,Visit 3,3,2.28,2.0340000000000003,1.892105263157895
adlb,17501,10014,1750110014,POTASS,Potassium (mmol/L) in Serum,4.711,mmol/L,Baseline,1,4.711,0,1
adlb,17501,10014,1750110014,POTASS,Potassium (mmol/L) in Serum,5.727,mmol/L,Visit 2,2,4.711,1.016,1.2156654638081086
adlb,17501,10014,1750110014,POTASS,Potassium (mmol/L) in Serum,6.745,mmol/L,Visit 3,3,4.711,2.034,1.4317554659308003
adlb,17501,10014,1750110014,SODIUM,Sodium (mmol/L) in Serum,140.473,mmol/L,Baseline,1,140.473,0,1
adlb,17501,10014,1750110014,SODIUM,Sodium (mmol/L) in Serum,141.489,mmol/L,Visit 2,2,140.473,1.0159999999999911,1.0072327066411337
adlb,17501,10014,1750110014,SODIUM,Sodium (mmol/L) in Serum,142.507,mmol/L,Visit 3,3,140.473,2.033999999999992,1.014479650893766
adlb,17501,10014,1750110014,URICAC,Urate (mg/dL) in Serum,5.991,mg/dL,Baseline,1,5.991,0,1
adlb,17501,10014,1750110014,URICAC,Urate (mg/dL) in Serum,7.007,mg/dL,Visit 2,2,5.991,1.016,1.169587714905692
adlb,17501,10014,1750110014,URICAC,Urate (mg/dL) in Serum,8.025,mg/dL,Visit 3,3,5.991,2.0340000000000007,1.339509263895844
adlb,17501,10015,1750110015,CALCIUM,Calcium (mg/dL) in Serum,9.735,mg/dL,Baseline,1,9.735,0,1
adlb,17501,10015,1750110015,CALCIUM,Calcium (mg/dL) in Serum,10.751,mg/dL,Visit 2,2,9.735,1.016,1.1043656908063688
adlb,17501,10015,1750110015,CALCIUM,Calcium (mg/dL) in Serum,11.769,mg/dL,Visit 3,3,9.735,2.0340000000000007,1.2089368258859785
adlb,17501,10015,1750110015,CREAT,Creatinine (mg/dL) in Serum,0.946,mg/dL,Baseline,1,0.946,0,1
adlb,17501,10015,1750110015,CREAT,Creatinine (mg/dL) in Serum,1.962,mg/dL,Visit 2,2,0.946,1.016,2.0739957716701904
adlb,17501,10015,1750110015,CREAT,Creatinine (mg/dL) in Serum,2.98,mg/dL,Visit 3,3,0.946,2.034,3.1501057082452433
adlb,17501,10015,1750110015,HB,Hemoglobin (g/dL) in Blood,15.102,g/dL,Baseline,1,15.102,0,1
adlb,17501,10015,1750110015,HB,Hemoglobin (g/dL) in Blood,16.117,g/dL,Visit 2,2,15.102,1.0150000000000006,1.0672096411071381
adlb,17501,10015,1750110015,HB,Hemoglobin (g/dL) in Blood,17.135,g/dL,Visit 3,3,15.102,2.0330000000000013,1.1346179313998146
adlb,17501,10015,1750110015,HCT,Hematocrit (%) in Blood - Calculated,46.124,%,Baseline,1,46.124,0,1
adlb,17501,10015,1750110015,HCT,Hematocrit (%) in Blood - Calculated,47.14,%,Visit 2,2,46.124,1.0159999999999982,1.0220275778336658
adlb,17501,10015,1750110015,HCT,Hematocrit (%) in Blood - Calculated,48.158,%,Visit 3,3,46.124,2.033999999999999,1.0440985170410197
adlb,17501,10015,1750110015,HDL,HDL Cholesterol (mg/dL) in Serum,40.894,mg/dL,Baseline,1,40.894,0,1
adlb,17501,10015,1750110015,HDL,HDL Cholesterol (mg/dL) in Serum,41.91,mg/dL,Visit 2,2,40.894,1.0159999999999982,1.0248447204968945
adlb,17501,10015,1750110015,HDL,HDL Cholesterol (mg/dL) in Serum,42.928,mg/dL,Visit 3,3,40.894,2.033999999999999,1.0497383479239009
adlb,17501,10015,1750110015,LDL,LDL Cholesterol (mg/dL) in Serum,46.471,mg/dL,Baseline,1,46.471,0,1
adlb,17501,10015,1750110015,LDL,LDL Cholesterol (mg/dL) in Serum,47.487,mg/dL,Visit 2,2,46.471,1.0160000000000053,1.0218630974155927
adlb,17501,10015,1750110015,LDL,LDL Cholesterol (mg/dL) in Serum,48.505,mg/dL,Visit 3,3,46.471,2.034000000000006,1.043769232424523
adlb,17501,10015,1750110015,MAGNES,Magnesium (mg/dL) in Serum,2.364,mg/dL,Baseline,1,2.364,0,1
adlb,17501,10015,1750110015,MAGNES,Magnesium (mg/dL) in Serum,3.38,mg/dL,Visit 2,2,2.364,1.016,1.4297800338409477
adlb,17501,10015,1750110015,MAGNES,Magnesium (mg/dL) in Serum,4.398,mg/dL,Visit 3,3,2.364,2.034,1.8604060913705582
adlb,17501,10015,1750110015,POTASS,Potassium (mmol/L) in Serum,4.831,mmol/L,Baseline,1,4.831,0,1
adlb,17501,10015,1750110015,POTASS,Potassium (mmol/L) in Serum,5.847,mmol/L,Visit 2,2,4.831,1.016,1.210308424756779
adlb,17501,10015,1750110015,POTASS,Potassium (mmol/L) in Serum,6.865,mmol/L,Visit 3,3,4.831,2.034,1.421030842475678
adlb,17501,10015,1750110015,SODIUM,Sodium (mmol/L) in Serum,135.783,mmol/L,Baseline,1,135.783,0,1
adlb,17501,10015,1750110015,SODIUM,Sodium (mmol/L) in Serum,136.799,mmol/L,Visit 2,2,135.783,1.0160000000000196,1.007482527267773
adlb,17501,10015,1750110015,SODIUM,Sodium (mmol/L) in Serum,137.817,mmol/L,Visit 3,3,135.783,2.0340000000000202,1.0149797839199313
adlb,17501,10015,1750110015,URICAC,Urate (mg/dL) in Serum,7.504,mg/dL,Baseline,1,7.504,0,1
adlb,17501,10015,1750110015,URICAC,Urate (mg/dL) in Serum,8.52,mg/dL,Visit 2,2,7.504,1.016,1.1353944562899787
adlb,17501,10015,1750110015,URICAC,Urate (mg/dL) in Serum,9.538,mg/dL,Visit 3,3,7.504,2.0340000000000007,1.2710554371002134
adlb,17501,10017,1750110017,CALCIUM,Calcium (mg/dL) in Serum,9.818,mg/dL,Baseline,1,9.818,0,1
adlb,17501,10017,1750110017,CALCIUM,Calcium (mg/dL) in Serum,10.834,mg/dL,Visit 2,2,9.818,1.016,1.1034833978407008
adlb,17501,10017,1750110017,CALCIUM,Calcium (mg/dL) in Serum,11.852,mg/dL,Visit 3,3,9.818,2.0340000000000007,1.207170503157466
adlb,17501,10017,1750110017,CREAT,Creatinine (mg/dL) in Serum,0.849,mg/dL,Baseline,1,0.849,0,1
adlb,17501,10017,1750110017,CREAT,Creatinine (mg/dL) in Serum,1.865,mg/dL,Visit 2,2,0.849,1.016,2.1967020023557127
adlb,17501,10017,1750110017,CREAT,Creatinine (mg/dL) in Serum,2.883,mg/dL,Visit 3,3,0.849,2.034,3.395759717314488
adlb,17501,10017,1750110017,GGT,Gamma Glutamyl Transferase (U/L) in Serum,24.876,U/L,Baseline,1,24.876,0,1
adlb,17501,10017,1750110017,GGT,Gamma Glutamyl Transferase (U/L) in Serum,25.892,U/L,Visit 2,2,24.876,1.0159999999999982,1.0408425791927962
adlb,17501,10017,1750110017,GGT,Gamma Glutamyl Transferase (U/L) in Serum,26.91,U/L,Visit 3,3,24.876,2.033999999999999,1.0817655571635312
adlb,17501,10017,1750110017,HB,Hemoglobin (g/dL) in Blood,13.665,g/dL,Baseline,1,13.665,0,1
adlb,17501,10017,1750110017,HB,Hemoglobin (g/dL) in Blood,14.681,g/dL,Visit 2,2,13.665,1.016,1.0743505305525065
adlb,17501,10017,1750110017,HCT,Hematocrit (%) in Blood - Calculated,41.815,%,Baseline,1,41.815,0,1
adlb,17501,10017,1750110017,HCT,Hematocrit (%) in Blood - Calculated,42.831,%,Visit 2,2,41.815,1.0160000000000053,1.0242975008968076
adlb,17501,10017,1750110017,HCT,Hematocrit (%) in Blood - Calculated,43.849,%,Visit 3,3,41.815,2.033999999999999,1.0486428315197895
adlb,17501,10017,1750110017,HDL,HDL Cholesterol (mg/dL) in Serum,67.151,mg/dL,Baseline,1,67.151,0,1
adlb,17501,10017,1750110017,HDL,HDL Cholesterol (mg/dL) in Serum,68.167,mg/dL,Visit 2,2,67.151,1.0160000000000053,1.015130079969025
adlb,17501,10017,1750110017,HDL,HDL Cholesterol (mg/dL) in Serum,69.185,mg/dL,Visit 3,3,67.151,2.034000000000006,1.0302899435600363
adlb,17501,10017,1750110017,LDL,LDL Cholesterol (mg/dL) in Serum,57.356,mg/dL,Baseline,1,57.356,0,1
adlb,17501,10017,1750110017,LDL,LDL Cholesterol (mg/dL) in Serum,58.372,mg/dL,Visit 2,2,57.356,1.0159999999999982,1.0177139270520956
adlb,17501,10017,1750110017,LDL,LDL Cholesterol (mg/dL) in Serum,59.389,mg/dL,Visit 3,3,57.356,2.0330000000000013,1.0354452890717623
adlb,17501,10017,1750110017,MAGNES,Magnesium (mg/dL) in Serum,2.15,mg/dL,Baseline,1,2.15,0,1
adlb,17501,10017,1750110017,MAGNES,Magnesium (mg/dL) in Serum,3.166,mg/dL,Visit 2,2,2.15,1.016,1.4725581395348837
adlb,17501,10017,1750110017,MAGNES,Magnesium (mg/dL) in Serum,4.184,mg/dL,Visit 3,3,2.15,2.0340000000000003,1.946046511627907
adlb,17501,10017,1750110017,POTASS,Potassium (mmol/L) in Serum,4.404,mmol/L,Baseline,1,4.404,0,1
adlb,17501,10017,1750110017,POTASS,Potassium (mmol/L) in Serum,5.42,mmol/L,Visit 2,2,4.404,1.016,1.2306993642143507
adlb,17501,10017,1750110017,POTASS,Potassium (mmol/L) in Serum,6.438,mmol/L,Visit 3,3,4.404,2.034,1.4618528610354222
adlb,17501,10017,1750110017,SODIUM,Sodium (mmol/L) in Serum,135.826,mmol/L,Baseline,1,135.826,0,1
adlb,17501,10017,1750110017,SODIUM,Sodium (mmol/L) in Serum,136.842,mmol/L,Visit 2,2,135.826,1.0160000000000196,1.0074801584380018
adlb,17501,10017,1750110017,SODIUM,Sodium (mmol/L) in Serum,137.86,mmol/L,Visit 3,3,135.826,2.0340000000000202,1.014975041597338
adlb,17501,10017,1750110017,URICAC,Urate (mg/dL) in Serum,9.23,mg/dL,Baseline,1,9.23,0,1
adlb,17501,10017,1750110017,URICAC,Urate (mg/dL) in Serum,10.246,mg/dL,Visit 2,2,9.23,1.016,1.1100758396533044
adlb,17501,10017,1750110017,URICAC,Urate (mg/dL) in Serum,11.264,mg/dL,Visit 3,3,9.23,2.033999999999999,1.2203683640303358
adlb,17501,10018,1750110018,CALCIUM,Calcium (mg/dL) in Serum,10.022,mg/dL,Baseline,1,10.022,0,1
adlb,17501,10018,1750110018,CALCIUM,Calcium (mg/dL) in Serum,11.038,mg/dL,Visit 2,2,10.022,1.016,1.101376970664538
adlb,17501,10018,1750110018,CALCIUM,Calcium (mg/dL) in Serum,12.056,mg/dL,Visit 3,3,10.022,2.033999999999999,1.202953502294951
adlb,17501,10018,1750110018,CREAT,Creatinine (mg/dL) in Serum,1.912,mg/dL,Baseline,1,1.912,0,1
adlb,17501,10018,1750110018,CREAT,Creatinine (mg/dL) in Serum,2.928,mg/dL,Visit 2,2,1.912,1.016,1.5313807531380754
adlb,17501,10018,1750110018,CREAT,Creatinine (mg/dL) in Serum,3.946,mg/dL,Visit 3,3,1.912,2.0340000000000003,2.0638075313807533
adlb,17501,10018,1750110018,GGT,Gamma Glutamyl Transferase (U/L) in Serum,29.33,U/L,Baseline,1,29.33,0,1
adlb,17501,10018,1750110018,GGT,Gamma Glutamyl Transferase (U/L) in Serum,30.346,U/L,Visit 2,2,29.33,1.0160000000000018,1.034640300034095
adlb,17501,10018,1750110018,GGT,Gamma Glutamyl Transferase (U/L) in Serum,31.364,U/L,Visit 3,3,29.33,2.0340000000000025,1.0693487896351859
adlb,17501,10018,1750110018,HB,Hemoglobin (g/dL) in Blood,12.773,g/dL,Baseline,1,12.773,0,1
adlb,17501,10018,1750110018,HB,Hemoglobin (g/dL) in Blood,13.789,g/dL,Visit 2,2,12.773,1.016,1.0795427855632975
adlb,17501,10018,1750110018,HB,Hemoglobin (g/dL) in Blood,14.807,g/dL,Visit 3,3,12.773,2.0340000000000007,1.1592421514131372
adlb,17501,10018,1750110018,HCT,Hematocrit (%) in Blood - Calculated,40.654,%,Baseline,1,40.654,0,1
adlb,17501,10018,1750110018,HCT,Hematocrit (%) in Blood - Calculated,41.67,%,Visit 2,2,40.654,1.0159999999999982,1.0249913907610566
adlb,17501,10018,1750110018,HCT,Hematocrit (%) in Blood - Calculated,42.688,%,Visit 3,3,40.654,2.033999999999999,1.0500319771732178
adlb,17501,10018,1750110018,HDL,HDL Cholesterol (mg/dL) in Serum,48.901,mg/dL,Baseline,1,48.901,0,1
adlb,17501,10018,1750110018,HDL,HDL Cholesterol (mg/dL) in Serum,49.917,mg/dL,Visit 2,2,48.901,1.0159999999999982,1.020776671233717
adlb,17501,10018,1750110018,HDL,HDL Cholesterol (mg/dL) in Serum,50.935,mg/dL,Visit 3,3,48.901,2.033999999999999,1.0415942414265558
adlb,17501,10018,1750110018,LDL,LDL Cholesterol (mg/dL) in Serum,82.326,mg/dL,Baseline,1,82.326,0,1
adlb,17501,10018,1750110018,LDL,LDL Cholesterol (mg/dL) in Serum,83.342,mg/dL,Visit 2,2,82.326,1.0160000000000053,1.0123411801860895
adlb,17501,10018,1750110018,LDL,LDL Cholesterol (mg/dL) in Serum,84.36,mg/dL,Visit 3,3,82.326,2.034000000000006,1.0247066540339627
adlb,17501,10018,1750110018,MAGNES,Magnesium (mg/dL) in Serum,2.678,mg/dL,Baseline,1,2.678,0,1
adlb,17501,10018,1750110018,MAGNES,Magnesium (mg/dL) in Serum,3.694,mg/dL,Visit 2,2,2.678,1.016,1.3793876026885736
adlb,17501,10018,1750110018,MAGNES,Magnesium (mg/dL) in Serum,4.712,mg/dL,Visit 3,3,2.678,2.034,1.7595220313666915
adlb,17501,10018,1750110018,POTASS,Potassium (mmol/L) in Serum,4.728,mmol/L,Baseline,1,4.728,0,1
adlb,17501,10018,1750110018,POTASS,Potassium (mmol/L) in Serum,5.744,mmol/L,Visit 2,2,4.728,1.016,1.2148900169204737
adlb,17501,10018,1750110018,POTASS,Potassium (mmol/L) in Serum,6.762,mmol/L,Visit 3,3,4.728,2.034,1.4302030456852792
adlb,17501,10018,1750110018,SODIUM,Sodium (mmol/L) in Serum,135.64,mmol/L,Baseline,1,135.64,0,1
adlb,17501,10018,1750110018,SODIUM,Sodium (mmol/L) in Serum,136.656,mmol/L,Visit 2,2,135.64,1.0160000000000196,1.007490415806547
adlb,17501,10018,1750110018,SODIUM,Sodium (mmol/L) in Serum,137.674,mmol/L,Visit 3,3,135.64,2.0340000000000202,1.0149955765260987
adlb,17501,10018,1750110018,URICAC,Urate (mg/dL) in Serum,6.97,mg/dL,Baseline,1,6.97,0,1
adlb,17501,10018,1750110018,URICAC,Urate (mg/dL) in Serum,7.986,mg/dL,Visit 2,2,6.97,1.016,1.145767575322812
adlb,17501,10018,1750110018,URICAC,Urate (mg/dL) in Serum,9.004,mg/dL,Visit 3,3,6.97,2.034,1.291822094691535
adlb,17501,10019,1750110019,CALCIUM,Calcium (mg/dL) in Serum,9.272,mg/dL,Baseline,1,9.272,0,1
adlb,17501,10019,1750110019,CALCIUM,Calcium (mg/dL) in Serum,10.288,mg/dL,Visit 2,2,9.272,1.016,1.1095772217428819
adlb,17501,10019,1750110019,CALCIUM,Calcium (mg/dL) in Serum,11.306,mg/dL,Visit 3,3,9.272,2.033999999999999,1.2193701466781708
adlb,17501,10019,1750110019,CREAT,Creatinine (mg/dL) in Serum,0.996,mg/dL,Baseline,1,0.996,0,1
adlb,17501,10019,1750110019,CREAT,Creatinine (mg/dL) in Serum,2.012,mg/dL,Visit 2,2,0.996,1.016,2.0200803212851404
adlb,17501,10019,1750110019,CREAT,Creatinine (mg/dL) in Serum,3.03,mg/dL,Visit 3,3,0.996,2.034,3.042168674698795
adlb,17501,10019,1750110019,GGT,Gamma Glutamyl Transferase (U/L) in Serum,25.087,U/L,Baseline,1,25.087,0,1
adlb,17501,10019,1750110019,GGT,Gamma Glutamyl Transferase (U/L) in Serum,26.103,U/L,Visit 2,2,25.087,1.0160000000000018,1.0404990632598559
adlb,17501,10019,1750110019,GGT,Gamma Glutamyl Transferase (U/L) in Serum,27.121,U/L,Visit 3,3,25.087,2.033999999999999,1.0810778490851836
adlb,17501,10019,1750110019,HB,Hemoglobin (g/dL) in Blood,12.185,g/dL,Baseline,1,12.185,0,1
adlb,17501,10019,1750110019,HB,Hemoglobin (g/dL) in Blood,13.201,g/dL,Visit 2,2,12.185,1.016,1.083381206401313
adlb,17501,10019,1750110019,HB,Hemoglobin (g/dL) in Blood,14.219,g/dL,Visit 3,3,12.185,2.033999999999999,1.1669265490356995
adlb,17501,10019,1750110019,HCT,Hematocrit (%) in Blood - Calculated,36.76,%,Baseline,1,36.76,0,1
adlb,17501,10019,1750110019,HCT,Hematocrit (%) in Blood - Calculated,37.776,%,Visit 2,2,36.76,1.0160000000000053,1.0276387377584333
adlb,17501,10019,1750110019,HCT,Hematocrit (%) in Blood - Calculated,38.794,%,Visit 3,3,36.76,2.033999999999999,1.0553318824809574
adlb,17501,10019,1750110019,HDL,HDL Cholesterol (mg/dL) in Serum,46.545,mg/dL,Baseline,1,46.545,0,1
adlb,17501,10019,1750110019,HDL,HDL Cholesterol (mg/dL) in Serum,47.561,mg/dL,Visit 2,2,46.545,1.0159999999999982,1.021828338167365
adlb,17501,10019,1750110019,HDL,HDL Cholesterol (mg/dL) in Serum,48.579,mg/dL,Visit 3,3,46.545,2.033999999999999,1.0436996455043506
adlb,17501,10019,1750110019,LDL,LDL Cholesterol (mg/dL) in Serum,80.948,mg/dL,Baseline,1,80.948,0,1
adlb,17501,10019,1750110019,LDL,LDL Cholesterol (mg/dL) in Serum,81.964,mg/dL,Visit 2,2,80.948,1.0160000000000053,1.0125512674803578
adlb,17501,10019,1750110019,LDL,LDL Cholesterol (mg/dL) in Serum,82.982,mg/dL,Visit 3,3,80.948,2.034000000000006,1.0251272421801652
adlb,17501,10019,1750110019,MAGNES,Magnesium (mg/dL) in Serum,2.297,mg/dL,Baseline,1,2.297,0,1
adlb,17501,10019,1750110019,MAGNES,Magnesium (mg/dL) in Serum,3.313,mg/dL,Visit 2,2,2.297,1.016,1.4423160644318676
adlb,17501,10019,1750110019,MAGNES,Magnesium (mg/dL) in Serum,4.331,mg/dL,Visit 3,3,2.297,2.0340000000000003,1.8855028297779712
adlb,17501,10019,1750110019,POTASS,Potassium (mmol/L) in Serum,4.741,mmol/L,Baseline,1,4.741,0,1
adlb,17501,10019,1750110019,POTASS,Potassium (mmol/L) in Serum,5.757,mmol/L,Visit 2,2,4.741,1.016,1.2143007804260704
adlb,17501,10019,1750110019,POTASS,Potassium (mmol/L) in Serum,6.775,mmol/L,Visit 3,3,4.741,2.0340000000000007,1.4290234127821138
adlb,17501,10019,1750110019,SODIUM,Sodium (mmol/L) in Serum,138.69,mmol/L,Baseline,1,138.69,0,1
adlb,17501,10019,1750110019,SODIUM,Sodium (mmol/L) in Serum,139.706,mmol/L,Visit 2,2,138.69,1.0159999999999911,1.0073256903886365
adlb,17501,10019,1750110019,SODIUM,Sodium (mmol/L) in Serum,140.724,mmol/L,Visit 3,3,138.69,2.033999999999992,1.0146658014276444
adlb,17501,10019,1750110019,URICAC,Urate (mg/dL) in Serum,8.729,mg/dL,Baseline,1,8.729,0,1
adlb,17501,10019,1750110019,URICAC,Urate (mg/dL) in Serum,9.745,mg/dL,Visit 2,2,8.729,1.016,1.1163936304273112
adlb,17501,10019,1750110019,URICAC,Urate (mg/dL) in Serum,10.763,mg/dL,Visit 3,3,8.729,2.0340000000000007,1.2330163821743614
adlb,17501,10021,1750110021,CALCIUM,Calcium (mg/dL) in Serum,9.629,mg/dL,Baseline,1,9.629,0,1
adlb,17501,10021,1750110021,CALCIUM,Calcium (mg/dL) in Serum,10.645,mg/dL,Visit 2,2,9.629,1.016,1.1055145913386644
adlb,17501,10021,1750110021,CALCIUM,Calcium (mg/dL) in Serum,11.663,mg/dL,Visit 3,3,9.629,2.0340000000000007,1.211236888565791
adlb,17501,10021,1750110021,CREAT,Creatinine (mg/dL) in Serum,0.882,mg/dL,Baseline,1,0.882,0,1
adlb,17501,10021,1750110021,CREAT,Creatinine (mg/dL) in Serum,1.898,mg/dL,Visit 2,2,0.882,1.016,2.1519274376417235
adlb,17501,10021,1750110021,CREAT,Creatinine (mg/dL) in Serum,2.916,mg/dL,Visit 3,3,0.882,2.034,3.3061224489795915
adlb,17501,10021,1750110021,GGT,Gamma Glutamyl Transferase (U/L) in Serum,92.067,U/L,Baseline,1,92.067,0,1
adlb,17501,10021,1750110021,GGT,Gamma Glutamyl Transferase (U/L) in Serum,93.083,U/L,Visit 2,2,92.067,1.0160000000000053,1.011035441580588
adlb,17501,10021,1750110021,GGT,Gamma Glutamyl Transferase (U/L) in Serum,94.101,U/L,Visit 3,3,92.067,2.034000000000006,1.0220926064713742
adlb,17501,10021,1750110021,HB,Hemoglobin (g/dL) in Blood,10.918,g/dL,Baseline,1,10.918,0,1
adlb,17501,10021,1750110021,HB,Hemoglobin (g/dL) in Blood,11.934,g/dL,Visit 2,2,10.918,1.016,1.093057336508518
adlb,17501,10021,1750110021,HB,Hemoglobin (g/dL) in Blood,12.952,g/dL,Visit 3,3,10.918,2.0340000000000007,1.1862978567503206
adlb,17501,10021,1750110021,HCT,Hematocrit (%) in Blood - Calculated,32.805,%,Baseline,1,32.805,0,1
adlb,17501,10021,1750110021,HCT,Hematocrit (%) in Blood - Calculated,33.821,%,Visit 2,2,32.805,1.0159999999999982,1.0309708885840572
adlb,17501,10021,1750110021,HCT,Hematocrit (%) in Blood - Calculated,34.839,%,Visit 3,3,32.805,2.033999999999999,1.062002743484225
adlb,17501,10021,1750110021,HDL,HDL Cholesterol (mg/dL) in Serum,38.489,mg/dL,Baseline,1,38.489,0,1
adlb,17501,10021,1750110021,HDL,HDL Cholesterol (mg/dL) in Serum,39.505,mg/dL,Visit 2,2,38.489,1.0160000000000053,1.0263971524331628
adlb,17501,10021,1750110021,HDL,HDL Cholesterol (mg/dL) in Serum,40.523,mg/dL,Visit 3,3,38.489,2.034000000000006,1.052846267764816
adlb,17501,10021,1750110021,LDL,LDL Cholesterol (mg/dL) in Serum,40.524,mg/dL,Baseline,1,40.524,0,1
adlb,17501,10021,1750110021,LDL,LDL Cholesterol (mg/dL) in Serum,41.54,mg/dL,Visit 2,2,40.524,1.0159999999999982,1.025071562530846
adlb,17501,10021,1750110021,LDL,LDL Cholesterol (mg/dL) in Serum,42.558,mg/dL,Visit 3,3,40.524,2.033999999999999,1.0501924785312406
adlb,17501,10021,1750110021,MAGNES,Magnesium (mg/dL) in Serum,1.544,mg/dL,Baseline,1,1.544,0,1
adlb,17501,10021,1750110021,MAGNES,Magnesium (mg/dL) in Serum,2.56,mg/dL,Visit 2,2,1.544,1.016,1.6580310880829014
adlb,17501,10021,1750110021,MAGNES,Magnesium (mg/dL) in Serum,3.578,mg/dL,Visit 3,3,1.544,2.034,2.3173575129533677
adlb,17501,10021,1750110021,POTASS,Potassium (mmol/L) in Serum,4.271,mmol/L,Baseline,1,4.271,0,1
adlb,17501,10021,1750110021,POTASS,Potassium (mmol/L) in Serum,5.287,mmol/L,Visit 2,2,4.271,1.016,1.2378833996722078
adlb,17501,10021,1750110021,POTASS,Potassium (mmol/L) in Serum,6.305,mmol/L,Visit 3,3,4.271,2.034,1.4762350737532193
adlb,17501,10021,1750110021,SODIUM,Sodium (mmol/L) in Serum,139.027,mmol/L,Baseline,1,139.027,0,1
adlb,17501,10021,1750110021,SODIUM,Sodium (mmol/L) in Serum,140.043,mmol/L,Visit 2,2,139.027,1.0160000000000196,1.0073079329914334
adlb,17501,10021,1750110021,SODIUM,Sodium (mmol/L) in Serum,141.061,mmol/L,Visit 3,3,139.027,2.0340000000000202,1.014630251677732
adlb,17501,10021,1750110021,URICAC,Urate (mg/dL) in Serum,8.332,mg/dL,Baseline,1,8.332,0,1
adlb,17501,10021,1750110021,URICAC,Urate (mg/dL) in Serum,9.348,mg/dL,Visit 2,2,8.332,1.016,1.1219395103216514
adlb,17501,10021,1750110021,URICAC,Urate (mg/dL) in Serum,10.366,mg/dL,Visit 3,3,8.332,2.033999999999999,1.2441190590494478
adlb,17501,10022,1750110022,CALCIUM,Calcium (mg/dL) in Serum,9.783,mg/dL,Baseline,1,9.783,0,1
adlb,17501,10022,1750110022,CALCIUM,Calcium (mg/dL) in Serum,10.799,mg/dL,Visit 2,2,9.783,1.016,1.1038536236328325
adlb,17501,10022,1750110022,CALCIUM,Calcium (mg/dL) in Serum,11.817,mg/dL,Visit 3,3,9.783,2.0340000000000007,1.2079116835326589
adlb,17501,10022,1750110022,GGT,Gamma Glutamyl Transferase (U/L) in Serum,22.68,U/L,Baseline,1,22.68,0,1
adlb,17501,10022,1750110022,GGT,Gamma Glutamyl Transferase (U/L) in Serum,23.696,U/L,Visit 2,2,22.68,1.0160000000000018,1.0447971781305117
adlb,17501,10022,1750110022,GGT,Gamma Glutamyl Transferase (U/L) in Serum,24.714,U/L,Visit 3,3,22.68,2.033999999999999,1.0896825396825396
adlb,17501,10022,1750110022,HB,Hemoglobin (g/dL) in Blood,13.492,g/dL,Baseline,1,13.492,0,1
adlb,17501,10022,1750110022,HB,Hemoglobin (g/dL) in Blood,14.508,g/dL,Visit 2,2,13.492,1.0159999999999982,1.0753038837829825
adlb,17501,10022,1750110022,HB,Hemoglobin (g/dL) in Blood,15.526,g/dL,Visit 3,3,13.492,2.033999999999999,1.1507560035576636
adlb,17501,10022,1750110022,HCT,Hematocrit (%) in Blood - Calculated,42.651,%,Baseline,1,42.651,0,1
adlb,17501,10022,1750110022,HCT,Hematocrit (%) in Blood - Calculated,43.667,%,Visit 2,2,42.651,1.0159999999999982,1.0238212468640828
adlb,17501,10022,1750110022,HCT,Hematocrit (%) in Blood - Calculated,44.685,%,Visit 3,3,42.651,2.033999999999999,1.0476893859464023
adlb,17501,10022,1750110022,HDL,HDL Cholesterol (mg/dL) in Serum,34.206,mg/dL,Baseline,1,34.206,0,1
adlb,17501,10022,1750110022,HDL,HDL Cholesterol (mg/dL) in Serum,35.222,mg/dL,Visit 2,2,34.206,1.0159999999999982,1.0297023913933228
adlb,17501,10022,1750110022,HDL,HDL Cholesterol (mg/dL) in Serum,36.24,mg/dL,Visit 3,3,34.206,2.033999999999999,1.0594632520610419
adlb,17501,10022,1750110022,LDL,LDL Cholesterol (mg/dL) in Serum,35.319,mg/dL,Baseline,1,35.319,0,1
adlb,17501,10022,1750110022,LDL,LDL Cholesterol (mg/dL) in Serum,36.335,mg/dL,Visit 2,2,35.319,1.0159999999999982,1.0287663863642798
adlb,17501,10022,1750110022,LDL,LDL Cholesterol (mg/dL) in Serum,37.353,mg/dL,Visit 3,3,35.319,2.033999999999999,1.0575893994733712
adlb,17501,10022,1750110022,MAGNES,Magnesium (mg/dL) in Serum,2.249,mg/dL,Baseline,1,2.249,0,1
adlb,17501,10022,1750110022,MAGNES,Magnesium (mg/dL) in Serum,3.265,mg/dL,Visit 2,2,2.249,1.016,1.4517563361493997
adlb,17501,10022,1750110022,MAGNES,Magnesium (mg/dL) in Serum,4.283,mg/dL,Visit 3,3,2.249,2.0340000000000003,1.9044019564250778
adlb,17501,10022,1750110022,POTASS,Potassium (mmol/L) in Serum,4.513,mmol/L,Baseline,1,4.513,0,1
adlb,17501,10022,1750110022,POTASS,Potassium (mmol/L) in Serum,5.529,mmol/L,Visit 2,2,4.513,1.016,1.2251274097052958
adlb,17501,10022,1750110022,POTASS,Potassium (mmol/L) in Serum,6.547,mmol/L,Visit 3,3,4.513,2.034,1.4506979836029248
adlb,17501,10022,1750110022,SODIUM,Sodium (mmol/L) in Serum,139.974,mmol/L,Baseline,1,139.974,0,1
adlb,17501,10022,1750110022,SODIUM,Sodium (mmol/L) in Serum,140.99,mmol/L,Visit 2,2,139.974,1.0160000000000196,1.007258490862589
adlb,17501,10022,1750110022,SODIUM,Sodium (mmol/L) in Serum,142.008,mmol/L,Visit 3,3,139.974,2.0340000000000202,1.0145312700930174
adlb,17501,10022,1750110022,URICAC,Urate (mg/dL) in Serum,8.688,mg/dL,Baseline,1,8.688,0,1
adlb,17501,10022,1750110022,URICAC,Urate (mg/dL) in Serum,9.704,mg/dL,Visit 2,2,8.688,1.016,1.1169429097605894
adlb,17501,10022,1750110022,URICAC,Urate (mg/dL) in Serum,10.722,mg/dL,Visit 3,3,8.688,2.033999999999999,1.2341160220994474
adlb,17501,10023,1750110023,CALCIUM,Calcium (mg/dL) in Serum,9.72,mg/dL,Baseline,1,9.72,0,1
adlb,17501,10023,1750110023,CALCIUM,Calcium (mg/dL) in Serum,10.736,mg/dL,Visit 2,2,9.72,1.016,1.1045267489711934
adlb,17501,10023,1750110023,CALCIUM,Calcium (mg/dL) in Serum,11.754,mg/dL,Visit 3,3,9.72,2.033999999999999,1.209259259259259
adlb,17501,10023,1750110023,CREAT,Creatinine (mg/dL) in Serum,0.716,mg/dL,Baseline,1,0.716,0,1
adlb,17501,10023,1750110023,CREAT,Creatinine (mg/dL) in Serum,1.732,mg/dL,Visit 2,2,0.716,1.016,2.4189944134078214
adlb,17501,10023,1750110023,CREAT,Creatinine (mg/dL) in Serum,2.75,mg/dL,Visit 3,3,0.716,2.034,3.8407821229050283
adlb,17501,10023,1750110023,GGT,Gamma Glutamyl Transferase (U/L) in Serum,144.525,U/L,Baseline,1,144.525,0,1
adlb,17501,10023,1750110023,GGT,Gamma Glutamyl Transferase (U/L) in Serum,145.541,U/L,Visit 2,2,144.525,1.0159999999999911,1.007029925618405
adlb,17501,10023,1750110023,GGT,Gamma Glutamyl Transferase (U/L) in Serum,146.559,U/L,Visit 3,3,144.525,2.033999999999992,1.0140736896730669
adlb,17501,10023,1750110023,HB,Hemoglobin (g/dL) in Blood,14.67,g/dL,Baseline,1,14.67,0,1
adlb,17501,10023,1750110023,HB,Hemoglobin (g/dL) in Blood,15.686,g/dL,Visit 2,2,14.67,1.016,1.0692569870483981
adlb,17501,10023,1750110023,HB,Hemoglobin (g/dL) in Blood,16.703,g/dL,Visit 3,3,14.67,2.0329999999999995,1.1385821404226313
adlb,17501,10023,1750110023,HCT,Hematocrit (%) in Blood - Calculated,48.861,%,Baseline,1,48.861,0,1
adlb,17501,10023,1750110023,HCT,Hematocrit (%) in Blood - Calculated,49.877,%,Visit 2,2,48.861,1.0160000000000053,1.0207936800311088
adlb,17501,10023,1750110023,HCT,Hematocrit (%) in Blood - Calculated,50.895,%,Visit 3,3,48.861,2.034000000000006,1.0416282925032236
adlb,17501,10023,1750110023,HDL,HDL Cholesterol (mg/dL) in Serum,49.189,mg/dL,Baseline,1,49.189,0,1
adlb,17501,10023,1750110023,HDL,HDL Cholesterol (mg/dL) in Serum,50.205,mg/dL,Visit 2,2,49.189,1.0159999999999982,1.020655024497347
adlb,17501,10023,1750110023,HDL,HDL Cholesterol (mg/dL) in Serum,51.223,mg/dL,Visit 3,3,49.189,2.033999999999999,1.041350708491736
adlb,17501,10023,1750110023,LDL,LDL Cholesterol (mg/dL) in Serum,61.313,mg/dL,Baseline,1,61.313,0,1
adlb,17501,10023,1750110023,LDL,LDL Cholesterol (mg/dL) in Serum,62.329,mg/dL,Visit 2,2,61.313,1.0159999999999982,1.0165707109422144
adlb,17501,10023,1750110023,LDL,LDL Cholesterol (mg/dL) in Serum,63.347,mg/dL,Visit 3,3,61.313,2.033999999999999,1.033174041394158
adlb,17501,10023,1750110023,MAGNES,Magnesium (mg/dL) in Serum,2.218,mg/dL,Baseline,1,2.218,0,1
adlb,17501,10023,1750110023,MAGNES,Magnesium (mg/dL) in Serum,3.234,mg/dL,Visit 2,2,2.218,1.016,1.4580703336339045
adlb,17501,10023,1750110023,MAGNES,Magnesium (mg/dL) in Serum,4.252,mg/dL,Visit 3,3,2.218,2.034,1.9170423805229937
adlb,17501,10023,1750110023,POTASS,Potassium (mmol/L) in Serum,4.969,mmol/L,Baseline,1,4.969,0,1
adlb,17501,10023,1750110023,POTASS,Potassium (mmol/L) in Serum,5.985,mmol/L,Visit 2,2,4.969,1.016,1.2044676997383779
adlb,17501,10023,1750110023,POTASS,Potassium (mmol/L) in Serum,7.003,mmol/L,Visit 3,3,4.969,2.034,1.4093378949486817
adlb,17501,10023,1750110023,SODIUM,Sodium (mmol/L) in Serum,138.253,mmol/L,Baseline,1,138.253,0,1
adlb,17501,10023,1750110023,SODIUM,Sodium (mmol/L) in Serum,139.269,mmol/L,Visit 2,2,138.253,1.0160000000000196,1.0073488459563267
adlb,17501,10023,1750110023,SODIUM,Sodium (mmol/L) in Serum,140.287,mmol/L,Visit 3,3,138.253,2.0340000000000202,1.0147121581448506
adlb,17501,10023,1750110023,URICAC,Urate (mg/dL) in Serum,10.933,mg/dL,Baseline,1,10.933,0,1
adlb,17501,10023,1750110023,URICAC,Urate (mg/dL) in Serum,11.949,mg/dL,Visit 2,2,10.933,1.016,1.09292966248971
adlb,17501,10023,1750110023,URICAC,Urate (mg/dL) in Serum,12.967,mg/dL,Visit 3,3,10.933,2.0340000000000007,1.186042257385896
adlb,17501,10024,1750110024,CALCIUM,Calcium (mg/dL) in Serum,9.651,mg/dL,Baseline,1,9.651,0,1
adlb,17501,10024,1750110024,CALCIUM,Calcium (mg/dL) in Serum,10.667,mg/dL,Visit 2,2,9.651,1.016,1.1052740648637447
adlb,17501,10024,1750110024,CALCIUM,Calcium (mg/dL) in Serum,11.685,mg/dL,Visit 3,3,9.651,2.0340000000000007,1.2107553621386387
adlb,17501,10024,1750110024,CREAT,Creatinine (mg/dL) in Serum,1.014,mg/dL,Baseline,1,1.014,0,1
adlb,17501,10024,1750110024,CREAT,Creatinine (mg/dL) in Serum,2.03,mg/dL,Visit 2,2,1.014,1.0159999999999998,2.001972386587771
adlb,17501,10024,1750110024,CREAT,Creatinine (mg/dL) in Serum,3.048,mg/dL,Visit 3,3,1.014,2.034,3.0059171597633134
adlb,17501,10024,1750110024,GGT,Gamma Glutamyl Transferase (U/L) in Serum,43.391,U/L,Baseline,1,43.391,0,1
adlb,17501,10024,1750110024,GGT,Gamma Glutamyl Transferase (U/L) in Serum,44.407,U/L,Visit 2,2,43.391,1.0159999999999982,1.0234149938927426
adlb,17501,10024,1750110024,GGT,Gamma Glutamyl Transferase (U/L) in Serum,45.425,U/L,Visit 3,3,43.391,2.033999999999999,1.0468760802931483
adlb,17501,10024,1750110024,HB,Hemoglobin (g/dL) in Blood,16.428,g/dL,Baseline,1,16.428,0,1
adlb,17501,10024,1750110024,HB,Hemoglobin (g/dL) in Blood,17.444,g/dL,Visit 2,2,16.428,1.0159999999999982,1.0618456294131968
adlb,17501,10024,1750110024,HB,Hemoglobin (g/dL) in Blood,18.462,g/dL,Visit 3,3,16.428,2.033999999999999,1.1238130021913806
adlb,17501,10024,1750110024,HCT,Hematocrit (%) in Blood - Calculated,50.13,%,Baseline,1,50.13,0,1
adlb,17501,10024,1750110024,HCT,Hematocrit (%) in Blood - Calculated,51.146,%,Visit 2,2,50.13,1.0159999999999982,1.0202673050069817
adlb,17501,10024,1750110024,HCT,Hematocrit (%) in Blood - Calculated,52.164,%,Visit 3,3,50.13,2.033999999999999,1.0405745062836624
adlb,17501,10024,1750110024,HDL,HDL Cholesterol (mg/dL) in Serum,27.021,mg/dL,Baseline,1,27.021,0,1
adlb,17501,10024,1750110024,HDL,HDL Cholesterol (mg/dL) in Serum,28.037,mg/dL,Visit 2,2,27.021,1.0159999999999982,1.0376003848858295
adlb,17501,10024,1750110024,HDL,HDL Cholesterol (mg/dL) in Serum,29.055,mg/dL,Visit 3,3,27.021,2.033999999999999,1.0752747862773397
adlb,17501,10024,1750110024,LDL,LDL Cholesterol (mg/dL) in Serum,82.624,mg/dL,Baseline,1,82.624,0,1
adlb,17501,10024,1750110024,LDL,LDL Cholesterol (mg/dL) in Serum,83.64,mg/dL,Visit 2,2,82.624,1.0160000000000053,1.0122966692486446
adlb,17501,10024,1750110024,LDL,LDL Cholesterol (mg/dL) in Serum,84.658,mg/dL,Visit 3,3,82.624,2.034000000000006,1.024617544539117
adlb,17501,10024,1750110024,MAGNES,Magnesium (mg/dL) in Serum,2.406,mg/dL,Baseline,1,2.406,0,1
adlb,17501,10024,1750110024,MAGNES,Magnesium (mg/dL) in Serum,3.422,mg/dL,Visit 2,2,2.406,1.016,1.4222776392352452
adlb,17501,10024,1750110024,MAGNES,Magnesium (mg/dL) in Serum,4.44,mg/dL,Visit 3,3,2.406,2.0340000000000003,1.8453865336658355
adlb,17501,10024,1750110024,POTASS,Potassium (mmol/L) in Serum,4.005,mmol/L,Baseline,1,4.005,0,1
adlb,17501,10024,1750110024,POTASS,Potassium (mmol/L) in Serum,5.021,mmol/L,Visit 2,2,4.005,1.016,1.2536828963795257
adlb,17501,10024,1750110024,POTASS,Potassium (mmol/L) in Serum,6.039,mmol/L,Visit 3,3,4.005,2.034,1.5078651685393258
adlb,17501,10024,1750110024,SODIUM,Sodium (mmol/L) in Serum,137.118,mmol/L,Baseline,1,137.118,0,1
adlb,17501,10024,1750110024,SODIUM,Sodium (mmol/L) in Serum,138.134,mmol/L,Visit 2,2,137.118,1.0159999999999911,1.0074096763371694
adlb,17501,10024,1750110024,SODIUM,Sodium (mmol/L) in Serum,139.152,mmol/L,Visit 3,3,137.118,2.033999999999992,1.0148339386513805
adlb,17501,10024,1750110024,URICAC,Urate (mg/dL) in Serum,8.477,mg/dL,Baseline,1,8.477,0,1
adlb,17501,10024,1750110024,URICAC,Urate (mg/dL) in Serum,9.493,mg/dL,Visit 2,2,8.477,1.016,1.119853721835555
adlb,17501,10024,1750110024,URICAC,Urate (mg/dL) in Serum,10.511,mg/dL,Visit 3,3,8.477,2.033999999999999,1.2399433761944083
adlb,17501,10025,1750110025,CALCIUM,Calcium (mg/dL) in Serum,8.82,mg/dL,Baseline,1,8.82,0,1
adlb,17501,10025,1750110025,CALCIUM,Calcium (mg/dL) in Serum,9.836,mg/dL,Visit 2,2,8.82,1.016,1.1151927437641724
adlb,17501,10025,1750110025,CALCIUM,Calcium (mg/dL) in Serum,10.854,mg/dL,Visit 3,3,8.82,2.033999999999999,1.230612244897959
adlb,17501,10025,1750110025,CREAT,Creatinine (mg/dL) in Serum,0.794,mg/dL,Baseline,1,0.794,0,1
adlb,17501,10025,1750110025,CREAT,Creatinine (mg/dL) in Serum,1.81,mg/dL,Visit 2,2,0.794,1.016,2.279596977329975
adlb,17501,10025,1750110025,CREAT,Creatinine (mg/dL) in Serum,2.828,mg/dL,Visit 3,3,0.794,2.034,3.5617128463476067
adlb,17501,10025,1750110025,GGT,Gamma Glutamyl Transferase (U/L) in Serum,38.528,U/L,Baseline,1,38.528,0,1
adlb,17501,10025,1750110025,GGT,Gamma Glutamyl Transferase (U/L) in Serum,39.544,U/L,Visit 2,2,38.528,1.0159999999999982,1.0263704318936877
adlb,17501,10025,1750110025,GGT,Gamma Glutamyl Transferase (U/L) in Serum,40.562,U/L,Visit 3,3,38.528,2.033999999999999,1.0527927740863787
adlb,17501,10025,1750110025,HB,Hemoglobin (g/dL) in Blood,15.533,g/dL,Baseline,1,15.533,0,1
adlb,17501,10025,1750110025,HB,Hemoglobin (g/dL) in Blood,16.549,g/dL,Visit 2,2,15.533,1.016,1.065409128951265
adlb,17501,10025,1750110025,HB,Hemoglobin (g/dL) in Blood,17.567,g/dL,Visit 3,3,15.533,2.0340000000000007,1.130947016030387
adlb,17501,10025,1750110025,HCT,Hematocrit (%) in Blood - Calculated,49.058,%,Baseline,1,49.058,0,1
adlb,17501,10025,1750110025,HCT,Hematocrit (%) in Blood - Calculated,50.074,%,Visit 2,2,49.058,1.0159999999999982,1.0207101797871907
adlb,17501,10025,1750110025,HCT,Hematocrit (%) in Blood - Calculated,51.091,%,Visit 3,3,49.058,2.0330000000000013,1.041440743609605
adlb,17501,10025,1750110025,HDL,HDL Cholesterol (mg/dL) in Serum,52.037,mg/dL,Baseline,1,52.037,0,1
adlb,17501,10025,1750110025,HDL,HDL Cholesterol (mg/dL) in Serum,53.053,mg/dL,Visit 2,2,52.037,1.0159999999999982,1.0195245690566328
adlb,17501,10025,1750110025,HDL,HDL Cholesterol (mg/dL) in Serum,54.071,mg/dL,Visit 3,3,52.037,2.033999999999999,1.0390875723043218
adlb,17501,10025,1750110025,LDL,LDL Cholesterol (mg/dL) in Serum,82.255,mg/dL,Baseline,1,82.255,0,1
adlb,17501,10025,1750110025,LDL,LDL Cholesterol (mg/dL) in Serum,83.271,mg/dL,Visit 2,2,82.255,1.0160000000000053,1.0123518327153365
adlb,17501,10025,1750110025,LDL,LDL Cholesterol (mg/dL) in Serum,84.289,mg/dL,Visit 3,3,82.255,2.034000000000006,1.0247279800620024
adlb,17501,10025,1750110025,MAGNES,Magnesium (mg/dL) in Serum,1.991,mg/dL,Baseline,1,1.991,0,1
adlb,17501,10025,1750110025,MAGNES,Magnesium (mg/dL) in Serum,3.007,mg/dL,Visit 2,2,1.991,1.016,1.5102963335007533
adlb,17501,10025,1750110025,MAGNES,Magnesium (mg/dL) in Serum,4.025,mg/dL,Visit 3,3,1.991,2.0340000000000003,2.0215971873430436
adlb,17501,10025,1750110025,POTASS,Potassium (mmol/L) in Serum,4.095,mmol/L,Baseline,1,4.095,0,1
adlb,17501,10025,1750110025,POTASS,Potassium (mmol/L) in Serum,5.111,mmol/L,Visit 2,2,4.095,1.016,1.2481074481074481
adlb,17501,10025,1750110025,POTASS,Potassium (mmol/L) in Serum,6.129,mmol/L,Visit 3,3,4.095,2.034,1.4967032967032967
adlb,17501,10025,1750110025,SODIUM,Sodium (mmol/L) in Serum,142.518,mmol/L,Baseline,1,142.518,0,1
adlb,17501,10025,1750110025,SODIUM,Sodium (mmol/L) in Serum,143.534,mmol/L,Visit 2,2,142.518,1.0159999999999911,1.007128924065732
adlb,17501,10025,1750110025,SODIUM,Sodium (mmol/L) in Serum,144.552,mmol/L,Visit 3,3,142.518,2.033999999999992,1.0142718814465541
adlb,17501,10025,1750110025,URICAC,Urate (mg/dL) in Serum,4.893,mg/dL,Baseline,1,4.893,0,1
adlb,17501,10025,1750110025,URICAC,Urate (mg/dL) in Serum,5.909,mg/dL,Visit 2,2,4.893,1.016,1.2076435724504395
adlb,17501,10025,1750110025,URICAC,Urate (mg/dL) in Serum,6.927,mg/dL,Visit 3,3,4.893,2.034,1.4156958920907419
adlb,17501,10026,1750110026,CALCIUM,Calcium (mg/dL) in Serum,10.241,mg/dL,Baseline,1,10.241,0,1
adlb,17501,10026,1750110026,CALCIUM,Calcium (mg/dL) in Serum,11.257,mg/dL,Visit 2,2,10.241,1.016,1.0992090616150767
adlb,17501,10026,1750110026,CALCIUM,Calcium (mg/dL) in Serum,12.275,mg/dL,Visit 3,3,10.241,2.0340000000000007,1.1986134166585296
adlb,17501,10026,1750110026,CREAT,Creatinine (mg/dL) in Serum,0.965,mg/dL,Baseline,1,0.965,0,1
adlb,17501,10026,1750110026,CREAT,Creatinine (mg/dL) in Serum,1.981,mg/dL,Visit 2,2,0.965,1.016,2.0528497409326425
adlb,17501,10026,1750110026,CREAT,Creatinine (mg/dL) in Serum,2.999,mg/dL,Visit 3,3,0.965,2.0340000000000003,3.1077720207253887
adlb,17501,10026,1750110026,GGT,Gamma Glutamyl Transferase (U/L) in Serum,57.603,U/L,Baseline,1,57.603,0,1
adlb,17501,10026,1750110026,GGT,Gamma Glutamyl Transferase (U/L) in Serum,58.619,U/L,Visit 2,2,57.603,1.0159999999999982,1.0176379702446052
adlb,17501,10026,1750110026,GGT,Gamma Glutamyl Transferase (U/L) in Serum,59.637,U/L,Visit 3,3,57.603,2.033999999999999,1.035310660903078
adlb,17501,10026,1750110026,HB,Hemoglobin (g/dL) in Blood,13.228,g/dL,Baseline,1,13.228,0,1
adlb,17501,10026,1750110026,HB,Hemoglobin (g/dL) in Blood,14.244,g/dL,Visit 2,2,13.228,1.016,1.0768067735107347
adlb,17501,10026,1750110026,HB,Hemoglobin (g/dL) in Blood,15.262,g/dL,Visit 3,3,13.228,2.0340000000000007,1.1537647414575145
adlb,17501,10026,1750110026,HCT,Hematocrit (%) in Blood - Calculated,40.222,%,Baseline,1,40.222,0,1
adlb,17501,10026,1750110026,HCT,Hematocrit (%) in Blood - Calculated,41.237,%,Visit 2,2,40.222,1.0150000000000006,1.0252349460494257
adlb,17501,10026,1750110026,HCT,Hematocrit (%) in Blood - Calculated,42.255,%,Visit 3,3,40.222,2.0330000000000013,1.050544478146288
adlb,17501,10026,1750110026,HDL,HDL Cholesterol (mg/dL) in Serum,51.647,mg/dL,Baseline,1,51.647,0,1
adlb,17501,10026,1750110026,HDL,HDL Cholesterol (mg/dL) in Serum,52.663,mg/dL,Visit 2,2,51.647,1.0159999999999982,1.0196720041822371
adlb,17501,10026,1750110026,HDL,HDL Cholesterol (mg/dL) in Serum,53.681,mg/dL,Visit 3,3,51.647,2.033999999999999,1.0393827327821559
adlb,17501,10026,1750110026,LDL,LDL Cholesterol (mg/dL) in Serum,74.006,mg/dL,Baseline,1,74.006,0,1
adlb,17501,10026,1750110026,LDL,LDL Cholesterol (mg/dL) in Serum,75.022,mg/dL,Visit 2,2,74.006,1.0160000000000053,1.0137286165986543
adlb,17501,10026,1750110026,LDL,LDL Cholesterol (mg/dL) in Serum,76.04,mg/dL,Visit 3,3,74.006,2.034000000000006,1.0274842580331325
adlb,17501,10026,1750110026,MAGNES,Magnesium (mg/dL) in Serum,2.219,mg/dL,Baseline,1,2.219,0,1
adlb,17501,10026,1750110026,MAGNES,Magnesium (mg/dL) in Serum,3.235,mg/dL,Visit 2,2,2.219,1.016,1.4578639026588553
adlb,17501,10026,1750110026,POTASS,Potassium (mmol/L) in Serum,3.965,mmol/L,Baseline,1,3.965,0,1
adlb,17501,10026,1750110026,POTASS,Potassium (mmol/L) in Serum,4.981,mmol/L,Visit 2,2,3.965,1.016,1.2562421185372006
adlb,17501,10026,1750110026,POTASS,Potassium (mmol/L) in Serum,5.999,mmol/L,Visit 3,3,3.965,2.034,1.5129886506935688
adlb,17501,10026,1750110026,SODIUM,Sodium (mmol/L) in Serum,136.367,mmol/L,Baseline,1,136.367,0,1
adlb,17501,10026,1750110026,SODIUM,Sodium (mmol/L) in Serum,137.383,mmol/L,Visit 2,2,136.367,1.0160000000000196,1.0074504828880888
adlb,17501,10026,1750110026,SODIUM,Sodium (mmol/L) in Serum,138.401,mmol/L,Visit 3,3,136.367,2.0340000000000202,1.0149156320810755
adlb,17501,10026,1750110026,URICAC,Urate (mg/dL) in Serum,6.318,mg/dL,Baseline,1,6.318,0,1
adlb,17501,10026,1750110026,URICAC,Urate (mg/dL) in Serum,7.334,mg/dL,Visit 2,2,6.318,1.016,1.1608103830326053
adlb,17501,10026,1750110026,URICAC,Urate (mg/dL) in Serum,8.352,mg/dL,Visit 3,3,6.318,2.0340000000000007,1.321937321937322
adlb,17501,10027,1750110027,CALCIUM,Calcium (mg/dL) in Serum,9.721,mg/dL,Baseline,1,9.721,0,1
adlb,17501,10027,1750110027,CALCIUM,Calcium (mg/dL) in Serum,10.737,mg/dL,Visit 2,2,9.721,1.016,1.1045159962966773
adlb,17501,10027,1750110027,CALCIUM,Calcium (mg/dL) in Serum,11.755,mg/dL,Visit 3,3,9.721,2.0340000000000007,1.209237732743545
adlb,17501,10027,1750110027,CREAT,Creatinine (mg/dL) in Serum,1.206,mg/dL,Baseline,1,1.206,0,1
adlb,17501,10027,1750110027,CREAT,Creatinine (mg/dL) in Serum,2.222,mg/dL,Visit 2,2,1.206,1.016,1.8424543946932006
adlb,17501,10027,1750110027,CREAT,Creatinine (mg/dL) in Serum,3.24,mg/dL,Visit 3,3,1.206,2.0340000000000003,2.6865671641791047
adlb,17501,10027,1750110027,GGT,Gamma Glutamyl Transferase (U/L) in Serum,246.803,U/L,Baseline,1,246.803,0,1
adlb,17501,10027,1750110027,GGT,Gamma Glutamyl Transferase (U/L) in Serum,247.819,U/L,Visit 2,2,246.803,1.0159999999999911,1.0041166436388536
adlb,17501,10027,1750110027,GGT,Gamma Glutamyl Transferase (U/L) in Serum,248.837,U/L,Visit 3,3,246.803,2.033999999999992,1.0082413909069177
adlb,17501,10027,1750110027,HB,Hemoglobin (g/dL) in Blood,15.793,g/dL,Baseline,1,15.793,0,1
adlb,17501,10027,1750110027,HB,Hemoglobin (g/dL) in Blood,16.809,g/dL,Visit 2,2,15.793,1.0160000000000018,1.0643322991198634
adlb,17501,10027,1750110027,HB,Hemoglobin (g/dL) in Blood,17.827,g/dL,Visit 3,3,15.793,2.0340000000000025,1.1287912366238209
adlb,17501,10027,1750110027,HCT,Hematocrit (%) in Blood - Calculated,46.643,%,Baseline,1,46.643,0,1
adlb,17501,10027,1750110027,HCT,Hematocrit (%) in Blood - Calculated,47.659,%,Visit 2,2,46.643,1.0159999999999982,1.0217824753982376
adlb,17501,10027,1750110027,HCT,Hematocrit (%) in Blood - Calculated,48.677,%,Visit 3,3,46.643,2.033999999999999,1.0436078296850546
adlb,17501,10027,1750110027,HDL,HDL Cholesterol (mg/dL) in Serum,31.488,mg/dL,Baseline,1,31.488,0,1
adlb,17501,10027,1750110027,HDL,HDL Cholesterol (mg/dL) in Serum,32.504,mg/dL,Visit 2,2,31.488,1.0159999999999982,1.0322662601626016
adlb,17501,10027,1750110027,HDL,HDL Cholesterol (mg/dL) in Serum,33.522,mg/dL,Visit 3,3,31.488,2.033999999999999,1.0645960365853657
adlb,17501,10027,1750110027,LDL,LDL Cholesterol (mg/dL) in Serum,68.104,mg/dL,Baseline,1,68.104,0,1
adlb,17501,10027,1750110027,LDL,LDL Cholesterol (mg/dL) in Serum,69.12,mg/dL,Visit 2,2,68.104,1.0160000000000053,1.014918360155057
adlb,17501,10027,1750110027,LDL,LDL Cholesterol (mg/dL) in Serum,70.138,mg/dL,Visit 3,3,68.104,2.034000000000006,1.029866087160813
adlb,17501,10027,1750110027,MAGNES,Magnesium (mg/dL) in Serum,1.74,mg/dL,Baseline,1,1.74,0,1
adlb,17501,10027,1750110027,MAGNES,Magnesium (mg/dL) in Serum,2.755,mg/dL,Visit 2,2,1.74,1.015,1.5833333333333333
adlb,17501,10027,1750110027,MAGNES,Magnesium (mg/dL) in Serum,3.773,mg/dL,Visit 3,3,1.74,2.0330000000000004,2.1683908045977014
adlb,17501,10027,1750110027,POTASS,Potassium (mmol/L) in Serum,4.317,mmol/L,Baseline,1,4.317,0,1
adlb,17501,10027,1750110027,POTASS,Potassium (mmol/L) in Serum,5.333,mmol/L,Visit 2,2,4.317,1.016,1.2353486217280518
adlb,17501,10027,1750110027,POTASS,Potassium (mmol/L) in Serum,6.351,mmol/L,Visit 3,3,4.317,2.034,1.4711605281445448
adlb,17501,10027,1750110027,SODIUM,Sodium (mmol/L) in Serum,137.272,mmol/L,Baseline,1,137.272,0,1
adlb,17501,10027,1750110027,SODIUM,Sodium (mmol/L) in Serum,138.288,mmol/L,Visit 2,2,137.272,1.0160000000000196,1.0074013637158343
adlb,17501,10027,1750110027,SODIUM,Sodium (mmol/L) in Serum,139.306,mmol/L,Visit 3,3,137.272,2.0340000000000202,1.0148172970452825
adlb,17501,10027,1750110027,URICAC,Urate (mg/dL) in Serum,10.577,mg/dL,Baseline,1,10.577,0,1
adlb,17501,10027,1750110027,URICAC,Urate (mg/dL) in Serum,11.593,mg/dL,Visit 2,2,10.577,1.016,1.0960574832183039
adlb,17501,10027,1750110027,URICAC,Urate (mg/dL) in Serum,12.611,mg/dL,Visit 3,3,10.577,2.0340000000000007,1.192304055970502
adlb,17501,10028,1750110028,CALCIUM,Calcium (mg/dL) in Serum,10.656,mg/dL,Baseline,1,10.656,0,1
adlb,17501,10028,1750110028,CALCIUM,Calcium (mg/dL) in Serum,11.672,mg/dL,Visit 2,2,10.656,1.016,1.0953453453453454
adlb,17501,10028,1750110028,CALCIUM,Calcium (mg/dL) in Serum,12.69,mg/dL,Visit 3,3,10.656,2.033999999999999,1.1908783783783783
adlb,17501,10028,1750110028,CREAT,Creatinine (mg/dL) in Serum,1.351,mg/dL,Baseline,1,1.351,0,1
adlb,17501,10028,1750110028,CREAT,Creatinine (mg/dL) in Serum,2.367,mg/dL,Visit 2,2,1.351,1.016,1.7520355292376018
adlb,17501,10028,1750110028,CREAT,Creatinine (mg/dL) in Serum,3.385,mg/dL,Visit 3,3,1.351,2.034,2.5055514433752775
adlb,17501,10028,1750110028,GGT,Gamma Glutamyl Transferase (U/L) in Serum,12.422,U/L,Baseline,1,12.422,0,1
adlb,17501,10028,1750110028,GGT,Gamma Glutamyl Transferase (U/L) in Serum,13.437,U/L,Visit 2,2,12.422,1.0149999999999988,1.081709869586218
adlb,17501,10028,1750110028,GGT,Gamma Glutamyl Transferase (U/L) in Serum,14.455,U/L,Visit 3,3,12.422,2.0329999999999995,1.163661246176139
adlb,17501,10028,1750110028,HB,Hemoglobin (g/dL) in Blood,13.231,g/dL,Baseline,1,13.231,0,1
adlb,17501,10028,1750110028,HB,Hemoglobin (g/dL) in Blood,14.247,g/dL,Visit 2,2,13.231,1.016,1.0767893583251456
adlb,17501,10028,1750110028,HB,Hemoglobin (g/dL) in Blood,15.265,g/dL,Visit 3,3,13.231,2.0340000000000007,1.1537298768044744
adlb,17501,10028,1750110028,HCT,Hematocrit (%) in Blood - Calculated,41.053,%,Baseline,1,41.053,0,1
adlb,17501,10028,1750110028,HCT,Hematocrit (%) in Blood - Calculated,42.069,%,Visit 2,2,41.053,1.0160000000000053,1.0247484958468323
adlb,17501,10028,1750110028,HCT,Hematocrit (%) in Blood - Calculated,43.087,%,Visit 3,3,41.053,2.034000000000006,1.0495457092051739
adlb,17501,10028,1750110028,HDL,HDL Cholesterol (mg/dL) in Serum,48.778,mg/dL,Baseline,1,48.778,0,1
adlb,17501,10028,1750110028,HDL,HDL Cholesterol (mg/dL) in Serum,49.794,mg/dL,Visit 2,2,48.778,1.0159999999999982,1.0208290622821763
adlb,17501,10028,1750110028,HDL,HDL Cholesterol (mg/dL) in Serum,50.812,mg/dL,Visit 3,3,48.778,2.033999999999999,1.0416991266554594
adlb,17501,10028,1750110028,LDL,LDL Cholesterol (mg/dL) in Serum,90.032,mg/dL,Baseline,1,90.032,0,1
adlb,17501,10028,1750110028,LDL,LDL Cholesterol (mg/dL) in Serum,91.048,mg/dL,Visit 2,2,90.032,1.0160000000000053,1.0112848764883597
adlb,17501,10028,1750110028,LDL,LDL Cholesterol (mg/dL) in Serum,92.066,mg/dL,Visit 3,3,90.032,2.034000000000006,1.0225919673005155
adlb,17501,10028,1750110028,MAGNES,Magnesium (mg/dL) in Serum,2.2,mg/dL,Baseline,1,2.2,0,1
adlb,17501,10028,1750110028,MAGNES,Magnesium (mg/dL) in Serum,3.216,mg/dL,Visit 2,2,2.2,1.016,1.4618181818181817
adlb,17501,10028,1750110028,MAGNES,Magnesium (mg/dL) in Serum,4.234,mg/dL,Visit 3,3,2.2,2.034,1.9245454545454543
adlb,17501,10028,1750110028,POTASS,Potassium (mmol/L) in Serum,4.537,mmol/L,Baseline,1,4.537,0,1
adlb,17501,10028,1750110028,POTASS,Potassium (mmol/L) in Serum,5.553,mmol/L,Visit 2,2,4.537,1.016,1.2239365219307914
adlb,17501,10028,1750110028,POTASS,Potassium (mmol/L) in Serum,6.571,mmol/L,Visit 3,3,4.537,2.034,1.448313863786643
adlb,17501,10028,1750110028,SODIUM,Sodium (mmol/L) in Serum,137.385,mmol/L,Baseline,1,137.385,0,1
adlb,17501,10028,1750110028,SODIUM,Sodium (mmol/L) in Serum,138.401,mmol/L,Visit 2,2,137.385,1.0160000000000196,1.0073952760490594
adlb,17501,10028,1750110028,SODIUM,Sodium (mmol/L) in Serum,139.419,mmol/L,Visit 3,3,137.385,2.0340000000000202,1.0148051097281363
adlb,17501,10028,1750110028,URICAC,Urate (mg/dL) in Serum,9.285,mg/dL,Baseline,1,9.285,0,1
adlb,17501,10028,1750110028,URICAC,Urate (mg/dL) in Serum,10.301,mg/dL,Visit 2,2,9.285,1.016,1.1094238018309102
adlb,17501,10028,1750110028,URICAC,Urate (mg/dL) in Serum,11.319,mg/dL,Visit 3,3,9.285,2.0340000000000007,1.2190630048465267
adlb,17501,10029,1750110029,CALCIUM,Calcium (mg/dL) in Serum,9.141,mg/dL,Baseline,1,9.141,0,1
adlb,17501,10029,1750110029,CALCIUM,Calcium (mg/dL) in Serum,10.157,mg/dL,Visit 2,2,9.141,1.016,1.111147576851548
adlb,17501,10029,1750110029,CALCIUM,Calcium (mg/dL) in Serum,11.175,mg/dL,Visit 3,3,9.141,2.0340000000000007,1.2225139481457172
adlb,17501,10029,1750110029,CREAT,Creatinine (mg/dL) in Serum,0.986,mg/dL,Baseline,1,0.986,0,1
adlb,17501,10029,1750110029,CREAT,Creatinine (mg/dL) in Serum,2.001,mg/dL,Visit 2,2,0.986,1.015,2.0294117647058822
adlb,17501,10029,1750110029,CREAT,Creatinine (mg/dL) in Serum,3.019,mg/dL,Visit 3,3,0.986,2.0330000000000004,3.061866125760649
adlb,17501,10029,1750110029,GGT,Gamma Glutamyl Transferase (U/L) in Serum,17.048,U/L,Baseline,1,17.048,0,1
adlb,17501,10029,1750110029,GGT,Gamma Glutamyl Transferase (U/L) in Serum,18.064,U/L,Visit 2,2,17.048,1.0160000000000018,1.0595964335992494
adlb,17501,10029,1750110029,GGT,Gamma Glutamyl Transferase (U/L) in Serum,19.082,U/L,Visit 3,3,17.048,2.0340000000000025,1.1193101830126702
adlb,17501,10029,1750110029,HB,Hemoglobin (g/dL) in Blood,12.639,g/dL,Baseline,1,12.639,0,1
adlb,17501,10029,1750110029,HB,Hemoglobin (g/dL) in Blood,13.655,g/dL,Visit 2,2,12.639,1.016,1.0803861064957672
adlb,17501,10029,1750110029,HB,Hemoglobin (g/dL) in Blood,14.673,g/dL,Visit 3,3,12.639,2.0340000000000007,1.1609304533586517
adlb,17501,10029,1750110029,HCT,Hematocrit (%) in Blood - Calculated,37.676,%,Baseline,1,37.676,0,1
adlb,17501,10029,1750110029,HCT,Hematocrit (%) in Blood - Calculated,38.692,%,Visit 2,2,37.676,1.0159999999999982,1.0269667692961035
adlb,17501,10029,1750110029,HCT,Hematocrit (%) in Blood - Calculated,39.71,%,Visit 3,3,37.676,2.033999999999999,1.053986622783735
adlb,17501,10029,1750110029,HDL,HDL Cholesterol (mg/dL) in Serum,68.697,mg/dL,Baseline,1,68.697,0,1
adlb,17501,10029,1750110029,HDL,HDL Cholesterol (mg/dL) in Serum,69.713,mg/dL,Visit 2,2,68.697,1.0159999999999911,1.014789583242354
adlb,17501,10029,1750110029,HDL,HDL Cholesterol (mg/dL) in Serum,70.731,mg/dL,Visit 3,3,68.697,2.033999999999992,1.0296082798375474
adlb,17501,10029,1750110029,LDL,LDL Cholesterol (mg/dL) in Serum,108.607,mg/dL,Baseline,1,108.607,0,1
adlb,17501,10029,1750110029,LDL,LDL Cholesterol (mg/dL) in Serum,109.623,mg/dL,Visit 2,2,108.607,1.0160000000000053,1.0093548297991843
adlb,17501,10029,1750110029,LDL,LDL Cholesterol (mg/dL) in Serum,110.641,mg/dL,Visit 3,3,108.607,2.034000000000006,1.0187280746176581
adlb,17501,10029,1750110029,MAGNES,Magnesium (mg/dL) in Serum,1.761,mg/dL,Baseline,1,1.761,0,1
adlb,17501,10029,1750110029,MAGNES,Magnesium (mg/dL) in Serum,2.777,mg/dL,Visit 2,2,1.761,1.0160000000000002,1.5769449176604204
adlb,17501,10029,1750110029,MAGNES,Magnesium (mg/dL) in Serum,3.795,mg/dL,Visit 3,3,1.761,2.034,2.155025553662692
adlb,17501,10029,1750110029,POTASS,Potassium (mmol/L) in Serum,4.076,mmol/L,Baseline,1,4.076,0,1
adlb,17501,10029,1750110029,POTASS,Potassium (mmol/L) in Serum,5.092,mmol/L,Visit 2,2,4.076,1.016,1.2492639842983317
adlb,17501,10029,1750110029,POTASS,Potassium (mmol/L) in Serum,6.11,mmol/L,Visit 3,3,4.076,2.0340000000000007,1.4990186457311092
adlb,17501,10029,1750110029,URICAC,Urate (mg/dL) in Serum,4.579,mg/dL,Baseline,1,4.579,0,1
adlb,17501,10029,1750110029,URICAC,Urate (mg/dL) in Serum,5.595,mg/dL,Visit 2,2,4.579,1.016,1.2218825070976196
adlb,17501,10029,1750110029,URICAC,Urate (mg/dL) in Serum,6.613,mg/dL,Visit 3,3,4.579,2.0340000000000007,1.4442017907840141
adlb,17501,10030,1750110030,CALCIUM,Calcium (mg/dL) in Serum,9.07,mg/dL,Baseline,1,9.07,0,1
adlb,17501,10030,1750110030,CALCIUM,Calcium (mg/dL) in Serum,10.086,mg/dL,Visit 2,2,9.07,1.016,1.1120176405733186
adlb,17501,10030,1750110030,CALCIUM,Calcium (mg/dL) in Serum,11.104,mg/dL,Visit 3,3,9.07,2.033999999999999,1.22425578831312
adlb,17501,10030,1750110030,CREAT,Creatinine (mg/dL) in Serum,0.834,mg/dL,Baseline,1,0.834,0,1
adlb,17501,10030,1750110030,CREAT,Creatinine (mg/dL) in Serum,1.85,mg/dL,Visit 2,2,0.834,1.016,2.218225419664269
adlb,17501,10030,1750110030,CREAT,Creatinine (mg/dL) in Serum,2.868,mg/dL,Visit 3,3,0.834,2.034,3.4388489208633093
adlb,17501,10030,1750110030,GGT,Gamma Glutamyl Transferase (U/L) in Serum,51.556,U/L,Baseline,1,51.556,0,1
adlb,17501,10030,1750110030,GGT,Gamma Glutamyl Transferase (U/L) in Serum,52.572,U/L,Visit 2,2,51.556,1.0160000000000053,1.0197067266661495
adlb,17501,10030,1750110030,GGT,Gamma Glutamyl Transferase (U/L) in Serum,53.59,U/L,Visit 3,3,51.556,2.034000000000006,1.039452246101327
adlb,17501,10030,1750110030,HB,Hemoglobin (g/dL) in Blood,14.001,g/dL,Baseline,1,14.001,0,1
adlb,17501,10030,1750110030,HB,Hemoglobin (g/dL) in Blood,15.017,g/dL,Visit 2,2,14.001,1.016,1.0725662452681952
adlb,17501,10030,1750110030,HB,Hemoglobin (g/dL) in Blood,16.035,g/dL,Visit 3,3,14.001,2.0340000000000007,1.1452753374758946
adlb,17501,10030,1750110030,HCT,Hematocrit (%) in Blood - Calculated,42.775,%,Baseline,1,42.775,0,1
adlb,17501,10030,1750110030,HCT,Hematocrit (%) in Blood - Calculated,43.791,%,Visit 2,2,42.775,1.0159999999999982,1.0237521917007597
adlb,17501,10030,1750110030,HCT,Hematocrit (%) in Blood - Calculated,44.809,%,Visit 3,3,42.775,2.033999999999999,1.047551139684395
adlb,17501,10030,1750110030,HDL,HDL Cholesterol (mg/dL) in Serum,43.891,mg/dL,Baseline,1,43.891,0,1
adlb,17501,10030,1750110030,HDL,HDL Cholesterol (mg/dL) in Serum,44.907,mg/dL,Visit 2,2,43.891,1.0159999999999982,1.0231482536283065
adlb,17501,10030,1750110030,HDL,HDL Cholesterol (mg/dL) in Serum,45.925,mg/dL,Visit 3,3,43.891,2.033999999999999,1.0463420746850152
adlb,17501,10030,1750110030,LDL,LDL Cholesterol (mg/dL) in Serum,67.208,mg/dL,Baseline,1,67.208,0,1
adlb,17501,10030,1750110030,LDL,LDL Cholesterol (mg/dL) in Serum,68.224,mg/dL,Visit 2,2,67.208,1.0160000000000053,1.015117247946673
adlb,17501,10030,1750110030,LDL,LDL Cholesterol (mg/dL) in Serum,69.242,mg/dL,Visit 3,3,67.208,2.034000000000006,1.0302642542554459
adlb,17501,10030,1750110030,MAGNES,Magnesium (mg/dL) in Serum,2.297,mg/dL,Baseline,1,2.297,0,1
adlb,17501,10030,1750110030,MAGNES,Magnesium (mg/dL) in Serum,3.313,mg/dL,Visit 2,2,2.297,1.016,1.4423160644318676
adlb,17501,10030,1750110030,MAGNES,Magnesium (mg/dL) in Serum,4.331,mg/dL,Visit 3,3,2.297,2.0340000000000003,1.8855028297779712
adlb,17501,10030,1750110030,POTASS,Potassium (mmol/L) in Serum,3.778,mmol/L,Baseline,1,3.778,0,1
adlb,17501,10030,1750110030,POTASS,Potassium (mmol/L) in Serum,4.794,mmol/L,Visit 2,2,3.778,1.0159999999999996,1.2689253573319215
adlb,17501,10030,1750110030,POTASS,Potassium (mmol/L) in Serum,5.812,mmol/L,Visit 3,3,3.778,2.0340000000000003,1.5383800952885125
adlb,17501,10030,1750110030,SODIUM,Sodium (mmol/L) in Serum,139.566,mmol/L,Baseline,1,139.566,0,1
adlb,17501,10030,1750110030,SODIUM,Sodium (mmol/L) in Serum,140.582,mmol/L,Visit 2,2,139.566,1.0159999999999911,1.0072797099580126
adlb,17501,10030,1750110030,SODIUM,Sodium (mmol/L) in Serum,141.6,mmol/L,Visit 3,3,139.566,2.033999999999992,1.014573750053738
adlb,17501,10030,1750110030,URICAC,Urate (mg/dL) in Serum,9,mg/dL,Baseline,1,9,0,1
adlb,17501,10030,1750110030,URICAC,Urate (mg/dL) in Serum,10.016,mg/dL,Visit 2,2,9,1.016,1.1128888888888888
adlb,17501,10030,1750110030,URICAC,Urate (mg/dL) in Serum,11.034,mg/dL,Visit 3,3,9,2.0340000000000007,1.226
adlb,17501,10031,1750110031,CALCIUM,Calcium (mg/dL) in Serum,9.262,mg/dL,Baseline,1,9.262,0,1
adlb,17501,10031,1750110031,CALCIUM,Calcium (mg/dL) in Serum,10.278,mg/dL,Visit 2,2,9.262,1.016,1.1096955301230835
adlb,17501,10031,1750110031,CALCIUM,Calcium (mg/dL) in Serum,11.296,mg/dL,Visit 3,3,9.262,2.033999999999999,1.2196069963290865
adlb,17501,10031,1750110031,CREAT,Creatinine (mg/dL) in Serum,1.305,mg/dL,Baseline,1,1.305,0,1
adlb,17501,10031,1750110031,CREAT,Creatinine (mg/dL) in Serum,2.321,mg/dL,Visit 2,2,1.305,1.0160000000000002,1.7785440613026822
adlb,17501,10031,1750110031,CREAT,Creatinine (mg/dL) in Serum,3.339,mg/dL,Visit 3,3,1.305,2.034,2.5586206896551724
adlb,17501,10031,1750110031,GGT,Gamma Glutamyl Transferase (U/L) in Serum,9.247,U/L,Baseline,1,9.247,0,1
adlb,17501,10031,1750110031,GGT,Gamma Glutamyl Transferase (U/L) in Serum,10.263,U/L,Visit 2,2,9.247,1.016,1.1098734724775603
adlb,17501,10031,1750110031,GGT,Gamma Glutamyl Transferase (U/L) in Serum,11.281,U/L,Visit 3,3,9.247,2.0340000000000007,1.2199632313182656
adlb,17501,10031,1750110031,HCT,Hematocrit (%) in Blood - Calculated,38.212,%,Baseline,1,38.212,0,1
adlb,17501,10031,1750110031,HCT,Hematocrit (%) in Blood - Calculated,39.228,%,Visit 2,2,38.212,1.0159999999999982,1.02658850622841
adlb,17501,10031,1750110031,HCT,Hematocrit (%) in Blood - Calculated,40.246,%,Visit 3,3,38.212,2.033999999999999,1.0532293520360096
adlb,17501,10031,1750110031,HDL,HDL Cholesterol (mg/dL) in Serum,59.111,mg/dL,Baseline,1,59.111,0,1
adlb,17501,10031,1750110031,HDL,HDL Cholesterol (mg/dL) in Serum,60.127,mg/dL,Visit 2,2,59.111,1.0160000000000053,1.017188002233087
adlb,17501,10031,1750110031,HDL,HDL Cholesterol (mg/dL) in Serum,61.145,mg/dL,Visit 3,3,59.111,2.034000000000006,1.034409839116239
adlb,17501,10031,1750110031,LDL,LDL Cholesterol (mg/dL) in Serum,105.477,mg/dL,Baseline,1,105.477,0,1
adlb,17501,10031,1750110031,LDL,LDL Cholesterol (mg/dL) in Serum,106.493,mg/dL,Visit 2,2,105.477,1.0159999999999911,1.009632431714971
adlb,17501,10031,1750110031,LDL,LDL Cholesterol (mg/dL) in Serum,107.511,mg/dL,Visit 3,3,105.477,2.033999999999992,1.0192838249096958
adlb,17501,10031,1750110031,MAGNES,Magnesium (mg/dL) in Serum,2.768,mg/dL,Baseline,1,2.768,0,1
adlb,17501,10031,1750110031,MAGNES,Magnesium (mg/dL) in Serum,3.784,mg/dL,Visit 2,2,2.768,1.016,1.3670520231213874
adlb,17501,10031,1750110031,POTASS,Potassium (mmol/L) in Serum,4.385,mmol/L,Baseline,1,4.385,0,1
adlb,17501,10031,1750110031,POTASS,Potassium (mmol/L) in Serum,5.401,mmol/L,Visit 2,2,4.385,1.016,1.2316989737742303
adlb,17501,10031,1750110031,POTASS,Potassium (mmol/L) in Serum,6.419,mmol/L,Visit 3,3,4.385,2.034,1.463854047890536
adlb,17501,10031,1750110031,SODIUM,Sodium (mmol/L) in Serum,137.002,mmol/L,Baseline,1,137.002,0,1
adlb,17501,10031,1750110031,SODIUM,Sodium (mmol/L) in Serum,138.018,mmol/L,Visit 2,2,137.002,1.0159999999999911,1.0074159501321147
adlb,17501,10031,1750110031,SODIUM,Sodium (mmol/L) in Serum,139.036,mmol/L,Visit 3,3,137.002,2.033999999999992,1.0148464985912613
adlb,17501,10031,1750110031,URICAC,Urate (mg/dL) in Serum,6.111,mg/dL,Baseline,1,6.111,0,1
adlb,17501,10031,1750110031,URICAC,Urate (mg/dL) in Serum,7.127,mg/dL,Visit 2,2,6.111,1.016,1.166257568319424
adlb,17501,10031,1750110031,URICAC,Urate (mg/dL) in Serum,8.145,mg/dL,Visit 3,3,6.111,2.034,1.332842415316642
adlb,17501,10032,1750110032,CALCIUM,Calcium (mg/dL) in Serum,9.925,mg/dL,Baseline,1,9.925,0,1
adlb,17501,10032,1750110032,CALCIUM,Calcium (mg/dL) in Serum,10.941,mg/dL,Visit 2,2,9.925,1.016,1.102367758186398
adlb,17501,10032,1750110032,CALCIUM,Calcium (mg/dL) in Serum,11.959,mg/dL,Visit 3,3,9.925,2.033999999999999,1.2049370277078084
adlb,17501,10032,1750110032,CREAT,Creatinine (mg/dL) in Serum,0.911,mg/dL,Baseline,1,0.911,0,1
adlb,17501,10032,1750110032,CREAT,Creatinine (mg/dL) in Serum,1.927,mg/dL,Visit 2,2,0.911,1.016,2.115257958287596
adlb,17501,10032,1750110032,CREAT,Creatinine (mg/dL) in Serum,2.945,mg/dL,Visit 3,3,0.911,2.034,3.2327113062568604
adlb,17501,10032,1750110032,GGT,Gamma Glutamyl Transferase (U/L) in Serum,12.201,U/L,Baseline,1,12.201,0,1
adlb,17501,10032,1750110032,GGT,Gamma Glutamyl Transferase (U/L) in Serum,13.217,U/L,Visit 2,2,12.201,1.016,1.0832718629620524
adlb,17501,10032,1750110032,GGT,Gamma Glutamyl Transferase (U/L) in Serum,14.235,U/L,Visit 3,3,12.201,2.033999999999999,1.1667076469141873
adlb,17501,10032,1750110032,HB,Hemoglobin (g/dL) in Blood,14.981,g/dL,Baseline,1,14.981,0,1
adlb,17501,10032,1750110032,HB,Hemoglobin (g/dL) in Blood,15.997,g/dL,Visit 2,2,14.981,1.016,1.067819237701088
adlb,17501,10032,1750110032,HB,Hemoglobin (g/dL) in Blood,17.015,g/dL,Visit 3,3,14.981,2.0340000000000007,1.1357719778385955
adlb,17501,10032,1750110032,HCT,Hematocrit (%) in Blood - Calculated,45.027,%,Baseline,1,45.027,0,1
adlb,17501,10032,1750110032,HCT,Hematocrit (%) in Blood - Calculated,46.043,%,Visit 2,2,45.027,1.0159999999999982,1.0225642392342371
adlb,17501,10032,1750110032,HCT,Hematocrit (%) in Blood - Calculated,47.061,%,Visit 3,3,45.027,2.033999999999999,1.0451728962622426
adlb,17501,10032,1750110032,HDL,HDL Cholesterol (mg/dL) in Serum,34.087,mg/dL,Baseline,1,34.087,0,1
adlb,17501,10032,1750110032,HDL,HDL Cholesterol (mg/dL) in Serum,35.103,mg/dL,Visit 2,2,34.087,1.0159999999999982,1.0298060844310146
adlb,17501,10032,1750110032,HDL,HDL Cholesterol (mg/dL) in Serum,36.121,mg/dL,Visit 3,3,34.087,2.033999999999999,1.0596708422565788
adlb,17501,10032,1750110032,LDL,LDL Cholesterol (mg/dL) in Serum,62.606,mg/dL,Baseline,1,62.606,0,1
adlb,17501,10032,1750110032,LDL,LDL Cholesterol (mg/dL) in Serum,63.622,mg/dL,Visit 2,2,62.606,1.0159999999999982,1.0162284765038494
adlb,17501,10032,1750110032,LDL,LDL Cholesterol (mg/dL) in Serum,64.64,mg/dL,Visit 3,3,62.606,2.033999999999999,1.0324888988275884
adlb,17501,10032,1750110032,MAGNES,Magnesium (mg/dL) in Serum,2.175,mg/dL,Baseline,1,2.175,0,1
adlb,17501,10032,1750110032,MAGNES,Magnesium (mg/dL) in Serum,3.191,mg/dL,Visit 2,2,2.175,1.016,1.4671264367816093
adlb,17501,10032,1750110032,MAGNES,Magnesium (mg/dL) in Serum,4.209,mg/dL,Visit 3,3,2.175,2.034,1.9351724137931035
adlb,17501,10032,1750110032,POTASS,Potassium (mmol/L) in Serum,4.095,mmol/L,Baseline,1,4.095,0,1
adlb,17501,10032,1750110032,POTASS,Potassium (mmol/L) in Serum,5.111,mmol/L,Visit 2,2,4.095,1.016,1.2481074481074481
adlb,17501,10032,1750110032,POTASS,Potassium (mmol/L) in Serum,6.129,mmol/L,Visit 3,3,4.095,2.034,1.4967032967032967
adlb,17501,10032,1750110032,SODIUM,Sodium (mmol/L) in Serum,142.933,mmol/L,Baseline,1,142.933,0,1
adlb,17501,10032,1750110032,SODIUM,Sodium (mmol/L) in Serum,143.949,mmol/L,Visit 2,2,142.933,1.0160000000000196,1.0071082255322426
adlb,17501,10032,1750110032,SODIUM,Sodium (mmol/L) in Serum,144.967,mmol/L,Visit 3,3,142.933,2.0340000000000202,1.0142304436344303
adlb,17501,10032,1750110032,URICAC,Urate (mg/dL) in Serum,7.084,mg/dL,Baseline,1,7.084,0,1
adlb,17501,10032,1750110032,URICAC,Urate (mg/dL) in Serum,8.099,mg/dL,Visit 2,2,7.084,1.0150000000000006,1.1432806324110674
adlb,17501,10032,1750110032,URICAC,Urate (mg/dL) in Serum,9.117,mg/dL,Visit 3,3,7.084,2.0330000000000013,1.2869847543760589
adlb,17501,10033,1750110033,CALCIUM,Calcium (mg/dL) in Serum,9.728,mg/dL,Baseline,1,9.728,0,1
adlb,17501,10033,1750110033,CALCIUM,Calcium (mg/dL) in Serum,10.744,mg/dL,Visit 2,2,9.728,1.016,1.1044407894736843
adlb,17501,10033,1750110033,CALCIUM,Calcium (mg/dL) in Serum,11.762,mg/dL,Visit 3,3,9.728,2.0340000000000007,1.2090871710526316
adlb,17501,10033,1750110033,CREAT,Creatinine (mg/dL) in Serum,1.349,mg/dL,Baseline,1,1.349,0,1
adlb,17501,10033,1750110033,CREAT,Creatinine (mg/dL) in Serum,2.365,mg/dL,Visit 2,2,1.349,1.0160000000000002,1.753150481838399
adlb,17501,10033,1750110033,CREAT,Creatinine (mg/dL) in Serum,3.383,mg/dL,Visit 3,3,1.349,2.034,2.507783543365456
adlb,17501,10033,1750110033,GGT,Gamma Glutamyl Transferase (U/L) in Serum,35.453,U/L,Baseline,1,35.453,0,1
adlb,17501,10033,1750110033,GGT,Gamma Glutamyl Transferase (U/L) in Serum,36.469,U/L,Visit 2,2,35.453,1.0159999999999982,1.028657659436437
adlb,17501,10033,1750110033,GGT,Gamma Glutamyl Transferase (U/L) in Serum,37.487,U/L,Visit 3,3,35.453,2.033999999999999,1.0573717315883
adlb,17501,10033,1750110033,HB,Hemoglobin (g/dL) in Blood,13.409,g/dL,Baseline,1,13.409,0,1
adlb,17501,10033,1750110033,HB,Hemoglobin (g/dL) in Blood,14.425,g/dL,Visit 2,2,13.409,1.016,1.0757700052203745
adlb,17501,10033,1750110033,HB,Hemoglobin (g/dL) in Blood,15.443,g/dL,Visit 3,3,13.409,2.033999999999999,1.151689163994332
adlb,17501,10033,1750110033,HCT,Hematocrit (%) in Blood - Calculated,41.116,%,Baseline,1,41.116,0,1
adlb,17501,10033,1750110033,HCT,Hematocrit (%) in Blood - Calculated,42.132,%,Visit 2,2,41.116,1.0159999999999982,1.0247105749586536
adlb,17501,10033,1750110033,HCT,Hematocrit (%) in Blood - Calculated,43.15,%,Visit 3,3,41.116,2.033999999999999,1.049469792781399
adlb,17501,10033,1750110033,HDL,HDL Cholesterol (mg/dL) in Serum,43.802,mg/dL,Baseline,1,43.802,0,1
adlb,17501,10033,1750110033,HDL,HDL Cholesterol (mg/dL) in Serum,44.818,mg/dL,Visit 2,2,43.802,1.0159999999999982,1.023195287886398
adlb,17501,10033,1750110033,HDL,HDL Cholesterol (mg/dL) in Serum,45.836,mg/dL,Visit 3,3,43.802,2.033999999999999,1.0464362357883201
adlb,17501,10033,1750110033,LDL,LDL Cholesterol (mg/dL) in Serum,103.547,mg/dL,Baseline,1,103.547,0,1
adlb,17501,10033,1750110033,LDL,LDL Cholesterol (mg/dL) in Serum,104.563,mg/dL,Visit 2,2,103.547,1.0160000000000053,1.0098119694438275
adlb,17501,10033,1750110033,LDL,LDL Cholesterol (mg/dL) in Serum,105.581,mg/dL,Visit 3,3,103.547,2.034000000000006,1.0196432537881348
adlb,17501,10033,1750110033,MAGNES,Magnesium (mg/dL) in Serum,2.073,mg/dL,Baseline,1,2.073,0,1
adlb,17501,10033,1750110033,MAGNES,Magnesium (mg/dL) in Serum,3.089,mg/dL,Visit 2,2,2.073,1.016,1.4901109503135552
adlb,17501,10033,1750110033,MAGNES,Magnesium (mg/dL) in Serum,4.107,mg/dL,Visit 3,3,2.073,2.0340000000000003,1.9811866859623735
adlb,17501,10033,1750110033,POTASS,Potassium (mmol/L) in Serum,4.165,mmol/L,Baseline,1,4.165,0,1
adlb,17501,10033,1750110033,POTASS,Potassium (mmol/L) in Serum,5.18,mmol/L,Visit 2,2,4.165,1.0149999999999997,1.2436974789915967
adlb,17501,10033,1750110033,POTASS,Potassium (mmol/L) in Serum,6.198,mmol/L,Visit 3,3,4.165,2.0330000000000004,1.4881152460984395
adlb,17501,10033,1750110033,SODIUM,Sodium (mmol/L) in Serum,139.248,mmol/L,Baseline,1,139.248,0,1
adlb,17501,10033,1750110033,SODIUM,Sodium (mmol/L) in Serum,140.264,mmol/L,Visit 2,2,139.248,1.0160000000000196,1.0072963345972654
adlb,17501,10033,1750110033,SODIUM,Sodium (mmol/L) in Serum,141.282,mmol/L,Visit 3,3,139.248,2.0340000000000202,1.0146070320579113
adlb,17501,10033,1750110033,URICAC,Urate (mg/dL) in Serum,14.227,mg/dL,Baseline,1,14.227,0,1
adlb,17501,10033,1750110033,URICAC,Urate (mg/dL) in Serum,15.243,mg/dL,Visit 2,2,14.227,1.016,1.0714135095241442
adlb,17501,10033,1750110033,URICAC,Urate (mg/dL) in Serum,16.261,mg/dL,Visit 3,3,14.227,2.033999999999999,1.1429675968229422
adlb,17501,10034,1750110034,CALCIUM,Calcium (mg/dL) in Serum,10.077,mg/dL,Baseline,1,10.077,0,1
adlb,17501,10034,1750110034,CALCIUM,Calcium (mg/dL) in Serum,11.093,mg/dL,Visit 2,2,10.077,1.016,1.100823657834673
adlb,17501,10034,1750110034,CALCIUM,Calcium (mg/dL) in Serum,12.111,mg/dL,Visit 3,3,10.077,2.0340000000000007,1.2018457874367372
adlb,17501,10034,1750110034,CREAT,Creatinine (mg/dL) in Serum,1.486,mg/dL,Baseline,1,1.486,0,1
adlb,17501,10034,1750110034,CREAT,Creatinine (mg/dL) in Serum,2.502,mg/dL,Visit 2,2,1.486,1.0159999999999998,1.68371467025572
adlb,17501,10034,1750110034,CREAT,Creatinine (mg/dL) in Serum,3.52,mg/dL,Visit 3,3,1.486,2.034,2.3687752355316287
adlb,17501,10034,1750110034,GGT,Gamma Glutamyl Transferase (U/L) in Serum,32.966,U/L,Baseline,1,32.966,0,1
adlb,17501,10034,1750110034,GGT,Gamma Glutamyl Transferase (U/L) in Serum,33.982,U/L,Visit 2,2,32.966,1.0159999999999982,1.0308196323484802
adlb,17501,10034,1750110034,GGT,Gamma Glutamyl Transferase (U/L) in Serum,35,U/L,Visit 3,3,32.966,2.033999999999999,1.0616999332645756
adlb,17501,10034,1750110034,HB,Hemoglobin (g/dL) in Blood,13.86,g/dL,Baseline,1,13.86,0,1
adlb,17501,10034,1750110034,HB,Hemoglobin (g/dL) in Blood,14.876,g/dL,Visit 2,2,13.86,1.016,1.0733044733044732
adlb,17501,10034,1750110034,HB,Hemoglobin (g/dL) in Blood,15.894,g/dL,Visit 3,3,13.86,2.0340000000000007,1.1467532467532469
adlb,17501,10034,1750110034,HCT,Hematocrit (%) in Blood - Calculated,42.738,%,Baseline,1,42.738,0,1
adlb,17501,10034,1750110034,HCT,Hematocrit (%) in Blood - Calculated,43.754,%,Visit 2,2,42.738,1.0159999999999982,1.023772754925359
adlb,17501,10034,1750110034,HCT,Hematocrit (%) in Blood - Calculated,44.772,%,Visit 3,3,42.738,2.033999999999999,1.0475923066123825
adlb,17501,10034,1750110034,HDL,HDL Cholesterol (mg/dL) in Serum,46.263,mg/dL,Baseline,1,46.263,0,1
adlb,17501,10034,1750110034,HDL,HDL Cholesterol (mg/dL) in Serum,47.279,mg/dL,Visit 2,2,46.263,1.0160000000000053,1.0219613946350217
adlb,17501,10034,1750110034,HDL,HDL Cholesterol (mg/dL) in Serum,48.297,mg/dL,Visit 3,3,46.263,2.033999999999999,1.0439660203618442
adlb,17501,10034,1750110034,LDL,LDL Cholesterol (mg/dL) in Serum,101.265,mg/dL,Baseline,1,101.265,0,1
adlb,17501,10034,1750110034,LDL,LDL Cholesterol (mg/dL) in Serum,102.281,mg/dL,Visit 2,2,101.265,1.0160000000000053,1.0100330815187875
adlb,17501,10034,1750110034,LDL,LDL Cholesterol (mg/dL) in Serum,103.299,mg/dL,Visit 3,3,101.265,2.034000000000006,1.0200859131980449
adlb,17501,10034,1750110034,MAGNES,Magnesium (mg/dL) in Serum,2.503,mg/dL,Baseline,1,2.503,0,1
adlb,17501,10034,1750110034,MAGNES,Magnesium (mg/dL) in Serum,3.519,mg/dL,Visit 2,2,2.503,1.016,1.4059129045145824
adlb,17501,10034,1750110034,MAGNES,Magnesium (mg/dL) in Serum,4.537,mg/dL,Visit 3,3,2.503,2.034,1.8126248501797841
adlb,17501,10034,1750110034,POTASS,Potassium (mmol/L) in Serum,4.113,mmol/L,Baseline,1,4.113,0,1
adlb,17501,10034,1750110034,POTASS,Potassium (mmol/L) in Serum,5.129,mmol/L,Visit 2,2,4.113,1.0159999999999991,1.24702163870654
adlb,17501,10034,1750110034,POTASS,Potassium (mmol/L) in Serum,6.147,mmol/L,Visit 3,3,4.113,2.034,1.4945295404814003
adlb,17501,10034,1750110034,SODIUM,Sodium (mmol/L) in Serum,141.073,mmol/L,Baseline,1,141.073,0,1
adlb,17501,10034,1750110034,SODIUM,Sodium (mmol/L) in Serum,142.089,mmol/L,Visit 2,2,141.073,1.0159999999999911,1.0072019450922571
adlb,17501,10034,1750110034,SODIUM,Sodium (mmol/L) in Serum,143.107,mmol/L,Visit 3,3,141.073,2.033999999999992,1.0144180672417826
adlb,17501,10034,1750110034,URICAC,Urate (mg/dL) in Serum,5.358,mg/dL,Baseline,1,5.358,0,1
adlb,17501,10034,1750110034,URICAC,Urate (mg/dL) in Serum,6.374,mg/dL,Visit 2,2,5.358,1.016,1.1896229936543488
adlb,17501,10034,1750110034,URICAC,Urate (mg/dL) in Serum,7.392,mg/dL,Visit 3,3,5.358,2.0340000000000007,1.3796192609182532
adlb,17501,10036,1750110036,CALCIUM,Calcium (mg/dL) in Serum,9.063,mg/dL,Baseline,1,9.063,0,1
adlb,17501,10036,1750110036,CALCIUM,Calcium (mg/dL) in Serum,10.079,mg/dL,Visit 2,2,9.063,1.016,1.1121041597704955
adlb,17501,10036,1750110036,CALCIUM,Calcium (mg/dL) in Serum,11.097,mg/dL,Visit 3,3,9.063,2.033999999999999,1.224428997020854
adlb,17501,10036,1750110036,CREAT,Creatinine (mg/dL) in Serum,1.402,mg/dL,Baseline,1,1.402,0,1
adlb,17501,10036,1750110036,CREAT,Creatinine (mg/dL) in Serum,2.418,mg/dL,Visit 2,2,1.402,1.0160000000000002,1.7246790299572041
adlb,17501,10036,1750110036,CREAT,Creatinine (mg/dL) in Serum,3.436,mg/dL,Visit 3,3,1.402,2.034,2.450784593437946
adlb,17501,10036,1750110036,GGT,Gamma Glutamyl Transferase (U/L) in Serum,13.137,U/L,Baseline,1,13.137,0,1
adlb,17501,10036,1750110036,GGT,Gamma Glutamyl Transferase (U/L) in Serum,14.153,U/L,Visit 2,2,13.137,1.016,1.0773388140366902
adlb,17501,10036,1750110036,GGT,Gamma Glutamyl Transferase (U/L) in Serum,15.171,U/L,Visit 3,3,13.137,2.033999999999999,1.1548298698332953
adlb,17501,10036,1750110036,HB,Hemoglobin (g/dL) in Blood,13.481,g/dL,Baseline,1,13.481,0,1
adlb,17501,10036,1750110036,HB,Hemoglobin (g/dL) in Blood,14.497,g/dL,Visit 2,2,13.481,1.016,1.0753653289815295
adlb,17501,10036,1750110036,HB,Hemoglobin (g/dL) in Blood,15.515,g/dL,Visit 3,3,13.481,2.0340000000000007,1.150879014909873
adlb,17501,10036,1750110036,HCT,Hematocrit (%) in Blood - Calculated,40.643,%,Baseline,1,40.643,0,1
adlb,17501,10036,1750110036,HCT,Hematocrit (%) in Blood - Calculated,41.659,%,Visit 2,2,40.643,1.0159999999999982,1.0249981546637796
adlb,17501,10036,1750110036,HCT,Hematocrit (%) in Blood - Calculated,42.677,%,Visit 3,3,40.643,2.033999999999999,1.050045518293433
adlb,17501,10036,1750110036,HDL,HDL Cholesterol (mg/dL) in Serum,75.454,mg/dL,Baseline,1,75.454,0,1
adlb,17501,10036,1750110036,HDL,HDL Cholesterol (mg/dL) in Serum,76.47,mg/dL,Visit 2,2,75.454,1.0160000000000053,1.0134651575794524
adlb,17501,10036,1750110036,HDL,HDL Cholesterol (mg/dL) in Serum,77.488,mg/dL,Visit 3,3,75.454,2.034000000000006,1.0269568213746125
adlb,17501,10036,1750110036,LDL,LDL Cholesterol (mg/dL) in Serum,73.839,mg/dL,Baseline,1,73.839,0,1
adlb,17501,10036,1750110036,LDL,LDL Cholesterol (mg/dL) in Serum,74.855,mg/dL,Visit 2,2,73.839,1.0160000000000053,1.0137596663010062
adlb,17501,10036,1750110036,LDL,LDL Cholesterol (mg/dL) in Serum,75.873,mg/dL,Visit 3,3,73.839,2.034000000000006,1.027546418559298
adlb,17501,10036,1750110036,MAGNES,Magnesium (mg/dL) in Serum,2.317,mg/dL,Baseline,1,2.317,0,1
adlb,17501,10036,1750110036,MAGNES,Magnesium (mg/dL) in Serum,3.333,mg/dL,Visit 2,2,2.317,1.016,1.4384980578334052
adlb,17501,10036,1750110036,MAGNES,Magnesium (mg/dL) in Serum,4.351,mg/dL,Visit 3,3,2.317,2.034,1.8778593008200257
adlb,17501,10036,1750110036,POTASS,Potassium (mmol/L) in Serum,4.288,mmol/L,Baseline,1,4.288,0,1
adlb,17501,10036,1750110036,POTASS,Potassium (mmol/L) in Serum,5.304,mmol/L,Visit 2,2,4.288,1.016,1.2369402985074627
adlb,17501,10036,1750110036,POTASS,Potassium (mmol/L) in Serum,6.322,mmol/L,Visit 3,3,4.288,2.034,1.474347014925373
adlb,17501,10036,1750110036,SODIUM,Sodium (mmol/L) in Serum,138.75,mmol/L,Baseline,1,138.75,0,1
adlb,17501,10036,1750110036,SODIUM,Sodium (mmol/L) in Serum,139.766,mmol/L,Visit 2,2,138.75,1.0159999999999911,1.0073225225225224
adlb,17501,10036,1750110036,SODIUM,Sodium (mmol/L) in Serum,140.784,mmol/L,Visit 3,3,138.75,2.033999999999992,1.0146594594594593
adlb,17501,10037,1750110037,CALCIUM,Calcium (mg/dL) in Serum,8.759,mg/dL,Baseline,1,8.759,0,1
adlb,17501,10037,1750110037,CALCIUM,Calcium (mg/dL) in Serum,9.775,mg/dL,Visit 2,2,8.759,1.016,1.1159949765955017
adlb,17501,10037,1750110037,CALCIUM,Calcium (mg/dL) in Serum,10.793,mg/dL,Visit 3,3,8.759,2.033999999999999,1.2322182897591047
adlb,17501,10037,1750110037,CREAT,Creatinine (mg/dL) in Serum,1.037,mg/dL,Baseline,1,1.037,0,1
adlb,17501,10037,1750110037,CREAT,Creatinine (mg/dL) in Serum,2.053,mg/dL,Visit 2,2,1.037,1.016,1.9797492767598843
adlb,17501,10037,1750110037,CREAT,Creatinine (mg/dL) in Serum,3.071,mg/dL,Visit 3,3,1.037,2.0340000000000003,2.9614271938283516
adlb,17501,10037,1750110037,GGT,Gamma Glutamyl Transferase (U/L) in Serum,314.304,U/L,Baseline,1,314.304,0,1
adlb,17501,10037,1750110037,GGT,Gamma Glutamyl Transferase (U/L) in Serum,315.32,U/L,Visit 2,2,314.304,1.0160000000000196,1.0032325391977195
adlb,17501,10037,1750110037,GGT,Gamma Glutamyl Transferase (U/L) in Serum,316.338,U/L,Visit 3,3,314.304,2.0340000000000487,1.0064714416615763
adlb,17501,10037,1750110037,HB,Hemoglobin (g/dL) in Blood,13.405,g/dL,Baseline,1,13.405,0,1
adlb,17501,10037,1750110037,HB,Hemoglobin (g/dL) in Blood,14.421,g/dL,Visit 2,2,13.405,1.016,1.075792614696009
adlb,17501,10037,1750110037,HB,Hemoglobin (g/dL) in Blood,15.439,g/dL,Visit 3,3,13.405,2.0340000000000007,1.1517344274524433
adlb,17501,10037,1750110037,HCT,Hematocrit (%) in Blood - Calculated,45.039,%,Baseline,1,45.039,0,1
adlb,17501,10037,1750110037,HCT,Hematocrit (%) in Blood - Calculated,46.055,%,Visit 2,2,45.039,1.0159999999999982,1.0225582273141056
adlb,17501,10037,1750110037,HCT,Hematocrit (%) in Blood - Calculated,47.073,%,Visit 3,3,45.039,2.033999999999999,1.045160860587491
adlb,17501,10037,1750110037,HDL,HDL Cholesterol (mg/dL) in Serum,62.102,mg/dL,Baseline,1,62.102,0,1
adlb,17501,10037,1750110037,HDL,HDL Cholesterol (mg/dL) in Serum,63.118,mg/dL,Visit 2,2,62.102,1.0160000000000053,1.0163601816366623
adlb,17501,10037,1750110037,HDL,HDL Cholesterol (mg/dL) in Serum,64.136,mg/dL,Visit 3,3,62.102,2.033999999999999,1.0327525683552865
adlb,17501,10037,1750110037,LDL,LDL Cholesterol (mg/dL) in Serum,147.822,mg/dL,Baseline,1,147.822,0,1
adlb,17501,10037,1750110037,LDL,LDL Cholesterol (mg/dL) in Serum,148.838,mg/dL,Visit 2,2,147.822,1.0159999999999911,1.006873131198333
adlb,17501,10037,1750110037,LDL,LDL Cholesterol (mg/dL) in Serum,149.856,mg/dL,Visit 3,3,147.822,2.033999999999992,1.0137597921824897
adlb,17501,10037,1750110037,MAGNES,Magnesium (mg/dL) in Serum,1.77,mg/dL,Baseline,1,1.77,0,1
adlb,17501,10037,1750110037,MAGNES,Magnesium (mg/dL) in Serum,2.786,mg/dL,Visit 2,2,1.77,1.016,1.5740112994350282
adlb,17501,10037,1750110037,MAGNES,Magnesium (mg/dL) in Serum,3.804,mg/dL,Visit 3,3,1.77,2.034,2.1491525423728812
adlb,17501,10037,1750110037,POTASS,Potassium (mmol/L) in Serum,5.233,mmol/L,Baseline,1,5.233,0,1
adlb,17501,10037,1750110037,POTASS,Potassium (mmol/L) in Serum,6.249,mmol/L,Visit 2,2,5.233,1.016,1.1941524937894135
adlb,17501,10037,1750110037,POTASS,Potassium (mmol/L) in Serum,7.267,mmol/L,Visit 3,3,5.233,2.0340000000000007,1.3886871775272311
adlb,17501,10037,1750110037,SODIUM,Sodium (mmol/L) in Serum,136.62,mmol/L,Baseline,1,136.62,0,1
adlb,17501,10037,1750110037,SODIUM,Sodium (mmol/L) in Serum,137.636,mmol/L,Visit 2,2,136.62,1.0159999999999911,1.0074366856975552
adlb,17501,10037,1750110037,SODIUM,Sodium (mmol/L) in Serum,138.654,mmol/L,Visit 3,3,136.62,2.033999999999992,1.0148880105401843
adlb,17501,10037,1750110037,URICAC,Urate (mg/dL) in Serum,6.251,mg/dL,Baseline,1,6.251,0,1
adlb,17501,10037,1750110037,URICAC,Urate (mg/dL) in Serum,7.267,mg/dL,Visit 2,2,6.251,1.016,1.1625339945608704
adlb,17501,10037,1750110037,URICAC,Urate (mg/dL) in Serum,8.285,mg/dL,Visit 3,3,6.251,2.034,1.3253879379299311
adlb,17501,10038,1750110038,CALCIUM,Calcium (mg/dL) in Serum,9.934,mg/dL,Baseline,1,9.934,0,1
adlb,17501,10038,1750110038,CALCIUM,Calcium (mg/dL) in Serum,10.95,mg/dL,Visit 2,2,9.934,1.016,1.1022750150996576
adlb,17501,10038,1750110038,CALCIUM,Calcium (mg/dL) in Serum,11.968,mg/dL,Visit 3,3,9.934,2.0340000000000007,1.2047513589691967
adlb,17501,10038,1750110038,GGT,Gamma Glutamyl Transferase (U/L) in Serum,4.85,U/L,Baseline,1,4.85,0,1
adlb,17501,10038,1750110038,GGT,Gamma Glutamyl Transferase (U/L) in Serum,5.866,U/L,Visit 2,2,4.85,1.016,1.2094845360824742
adlb,17501,10038,1750110038,GGT,Gamma Glutamyl Transferase (U/L) in Serum,6.884,U/L,Visit 3,3,4.85,2.0340000000000007,1.4193814432989693
adlb,17501,10038,1750110038,HB,Hemoglobin (g/dL) in Blood,17.028,g/dL,Baseline,1,17.028,0,1
adlb,17501,10038,1750110038,HB,Hemoglobin (g/dL) in Blood,18.044,g/dL,Visit 2,2,17.028,1.0160000000000018,1.059666431759455
adlb,17501,10038,1750110038,HB,Hemoglobin (g/dL) in Blood,19.062,g/dL,Visit 3,3,17.028,2.0340000000000025,1.1194503171247359
adlb,17501,10038,1750110038,HCT,Hematocrit (%) in Blood - Calculated,50.234,%,Baseline,1,50.234,0,1
adlb,17501,10038,1750110038,HCT,Hematocrit (%) in Blood - Calculated,51.25,%,Visit 2,2,50.234,1.0159999999999982,1.0202253453836048
adlb,17501,10038,1750110038,HCT,Hematocrit (%) in Blood - Calculated,52.268,%,Visit 3,3,50.234,2.033999999999999,1.0404905044392243
adlb,17501,10038,1750110038,HDL,HDL Cholesterol (mg/dL) in Serum,32.518,mg/dL,Baseline,1,32.518,0,1
adlb,17501,10038,1750110038,HDL,HDL Cholesterol (mg/dL) in Serum,33.534,mg/dL,Visit 2,2,32.518,1.0159999999999982,1.0312442339627284
adlb,17501,10038,1750110038,HDL,HDL Cholesterol (mg/dL) in Serum,34.552,mg/dL,Visit 3,3,32.518,2.033999999999999,1.062549972323021
adlb,17501,10038,1750110038,LDL,LDL Cholesterol (mg/dL) in Serum,73.776,mg/dL,Baseline,1,73.776,0,1
adlb,17501,10038,1750110038,LDL,LDL Cholesterol (mg/dL) in Serum,74.792,mg/dL,Visit 2,2,73.776,1.0160000000000053,1.0137714161787033
adlb,17501,10038,1750110038,LDL,LDL Cholesterol (mg/dL) in Serum,75.81,mg/dL,Visit 3,3,73.776,2.034000000000006,1.0275699414443722
adlb,17501,10038,1750110038,MAGNES,Magnesium (mg/dL) in Serum,2.968,mg/dL,Baseline,1,2.968,0,1
adlb,17501,10038,1750110038,MAGNES,Magnesium (mg/dL) in Serum,3.983,mg/dL,Visit 2,2,2.968,1.0150000000000001,1.3419811320754718
adlb,17501,10038,1750110038,POTASS,Potassium (mmol/L) in Serum,4.285,mmol/L,Baseline,1,4.285,0,1
adlb,17501,10038,1750110038,POTASS,Potassium (mmol/L) in Serum,5.301,mmol/L,Visit 2,2,4.285,1.016,1.2371061843640607
adlb,17501,10038,1750110038,POTASS,Potassium (mmol/L) in Serum,6.319,mmol/L,Visit 3,3,4.285,2.034,1.4746791131855308
adlb,17501,10038,1750110038,SODIUM,Sodium (mmol/L) in Serum,140.492,mmol/L,Baseline,1,140.492,0,1
adlb,17501,10038,1750110038,SODIUM,Sodium (mmol/L) in Serum,141.508,mmol/L,Visit 2,2,140.492,1.0160000000000196,1.0072317284969965
adlb,17501,10038,1750110038,SODIUM,Sodium (mmol/L) in Serum,142.526,mmol/L,Visit 3,3,140.492,2.0340000000000202,1.0144776926800103
adlb,17501,10038,1750110038,URICAC,Urate (mg/dL) in Serum,4.99,mg/dL,Baseline,1,4.99,0,1
adlb,17501,10038,1750110038,URICAC,Urate (mg/dL) in Serum,6.006,mg/dL,Visit 2,2,4.99,1.016,1.2036072144288577
adlb,17501,10038,1750110038,URICAC,Urate (mg/dL) in Serum,7.024,mg/dL,Visit 3,3,4.99,2.034,1.4076152304609217
adlb,17501,10039,1750110039,CALCIUM,Calcium (mg/dL) in Serum,8.925,mg/dL,Baseline,1,8.925,0,1
adlb,17501,10039,1750110039,CALCIUM,Calcium (mg/dL) in Serum,9.941,mg/dL,Visit 2,2,8.925,1.016,1.1138375350140055
adlb,17501,10039,1750110039,CALCIUM,Calcium (mg/dL) in Serum,10.959,mg/dL,Visit 3,3,8.925,2.033999999999999,1.2278991596638653
adlb,17501,10039,1750110039,CREAT,Creatinine (mg/dL) in Serum,1.773,mg/dL,Baseline,1,1.773,0,1
adlb,17501,10039,1750110039,CREAT,Creatinine (mg/dL) in Serum,2.789,mg/dL,Visit 2,2,1.773,1.0160000000000002,1.5730400451212636
adlb,17501,10039,1750110039,CREAT,Creatinine (mg/dL) in Serum,3.807,mg/dL,Visit 3,3,1.773,2.034,2.1472081218274113
adlb,17501,10039,1750110039,GGT,Gamma Glutamyl Transferase (U/L) in Serum,78.908,U/L,Baseline,1,78.908,0,1
adlb,17501,10039,1750110039,GGT,Gamma Glutamyl Transferase (U/L) in Serum,79.924,U/L,Visit 2,2,78.908,1.0160000000000053,1.0128757540426827
adlb,17501,10039,1750110039,GGT,Gamma Glutamyl Transferase (U/L) in Serum,80.942,U/L,Visit 3,3,78.908,2.033999999999992,1.02577685405789
adlb,17501,10039,1750110039,HB,Hemoglobin (g/dL) in Blood,15.074,g/dL,Baseline,1,15.074,0,1
adlb,17501,10039,1750110039,HB,Hemoglobin (g/dL) in Blood,16.09,g/dL,Visit 2,2,15.074,1.016,1.0674008226084648
adlb,17501,10039,1750110039,HB,Hemoglobin (g/dL) in Blood,17.108,g/dL,Visit 3,3,15.074,2.0340000000000007,1.134934324001592
adlb,17501,10039,1750110039,HCT,Hematocrit (%) in Blood - Calculated,48.737,%,Baseline,1,48.737,0,1
adlb,17501,10039,1750110039,HCT,Hematocrit (%) in Blood - Calculated,49.753,%,Visit 2,2,48.737,1.0159999999999982,1.020846584730287
adlb,17501,10039,1750110039,HCT,Hematocrit (%) in Blood - Calculated,50.771,%,Visit 3,3,48.737,2.033999999999999,1.0417342060446888
adlb,17501,10039,1750110039,HDL,HDL Cholesterol (mg/dL) in Serum,25.623,mg/dL,Baseline,1,25.623,0,1
adlb,17501,10039,1750110039,HDL,HDL Cholesterol (mg/dL) in Serum,26.639,mg/dL,Visit 2,2,25.623,1.0159999999999982,1.0396518752683135
adlb,17501,10039,1750110039,HDL,HDL Cholesterol (mg/dL) in Serum,27.657,mg/dL,Visit 3,3,25.623,2.033999999999999,1.0793818054092026
adlb,17501,10039,1750110039,LDL,LDL Cholesterol (mg/dL) in Serum,64.215,mg/dL,Baseline,1,64.215,0,1
adlb,17501,10039,1750110039,LDL,LDL Cholesterol (mg/dL) in Serum,65.231,mg/dL,Visit 2,2,64.215,1.0159999999999911,1.01582184847777
adlb,17501,10039,1750110039,LDL,LDL Cholesterol (mg/dL) in Serum,66.249,mg/dL,Visit 3,3,64.215,2.033999999999992,1.0316748423265591
adlb,17501,10039,1750110039,MAGNES,Magnesium (mg/dL) in Serum,1.96,mg/dL,Baseline,1,1.96,0,1
adlb,17501,10039,1750110039,MAGNES,Magnesium (mg/dL) in Serum,2.976,mg/dL,Visit 2,2,1.96,1.016,1.5183673469387755
adlb,17501,10039,1750110039,MAGNES,Magnesium (mg/dL) in Serum,3.994,mg/dL,Visit 3,3,1.96,2.0340000000000003,2.0377551020408164
adlb,17501,10039,1750110039,POTASS,Potassium (mmol/L) in Serum,4.689,mmol/L,Baseline,1,4.689,0,1
adlb,17501,10039,1750110039,POTASS,Potassium (mmol/L) in Serum,5.705,mmol/L,Visit 2,2,4.689,1.016,1.216677329921092
adlb,17501,10039,1750110039,POTASS,Potassium (mmol/L) in Serum,6.723,mmol/L,Visit 3,3,4.689,2.034,1.433781190019194
adlb,17501,10039,1750110039,SODIUM,Sodium (mmol/L) in Serum,136.574,mmol/L,Baseline,1,136.574,0,1
adlb,17501,10039,1750110039,SODIUM,Sodium (mmol/L) in Serum,137.59,mmol/L,Visit 2,2,136.574,1.0159999999999911,1.0074391904754931
adlb,17501,10039,1750110039,SODIUM,Sodium (mmol/L) in Serum,138.608,mmol/L,Visit 3,3,136.574,2.033999999999992,1.0148930250267254
adlb,17501,10039,1750110039,URICAC,Urate (mg/dL) in Serum,9.059,mg/dL,Baseline,1,9.059,0,1
adlb,17501,10039,1750110039,URICAC,Urate (mg/dL) in Serum,10.075,mg/dL,Visit 2,2,9.059,1.016,1.1121536593442984
adlb,17501,10039,1750110039,URICAC,Urate (mg/dL) in Serum,11.093,mg/dL,Visit 3,3,9.059,2.0340000000000007,1.224528093608566
adlb,17501,10040,1750110040,CALCIUM,Calcium (mg/dL) in Serum,9.765,mg/dL,Baseline,1,9.765,0,1
adlb,17501,10040,1750110040,CALCIUM,Calcium (mg/dL) in Serum,10.781,mg/dL,Visit 2,2,9.765,1.016,1.1040450588837685
adlb,17501,10040,1750110040,CALCIUM,Calcium (mg/dL) in Serum,11.799,mg/dL,Visit 3,3,9.765,2.033999999999999,1.208294930875576
adlb,17501,10040,1750110040,CREAT,Creatinine (mg/dL) in Serum,1.451,mg/dL,Baseline,1,1.451,0,1
adlb,17501,10040,1750110040,CREAT,Creatinine (mg/dL) in Serum,2.467,mg/dL,Visit 2,2,1.451,1.016,1.7002067539627843
adlb,17501,10040,1750110040,CREAT,Creatinine (mg/dL) in Serum,3.485,mg/dL,Visit 3,3,1.451,2.034,2.4017918676774634
adlb,17501,10040,1750110040,GGT,Gamma Glutamyl Transferase (U/L) in Serum,24.038,U/L,Baseline,1,24.038,0,1
adlb,17501,10040,1750110040,GGT,Gamma Glutamyl Transferase (U/L) in Serum,25.054,U/L,Visit 2,2,24.038,1.0159999999999982,1.042266411515101
adlb,17501,10040,1750110040,GGT,Gamma Glutamyl Transferase (U/L) in Serum,26.072,U/L,Visit 3,3,24.038,2.033999999999999,1.0846160246276728
adlb,17501,10040,1750110040,HB,Hemoglobin (g/dL) in Blood,12.626,g/dL,Baseline,1,12.626,0,1
adlb,17501,10040,1750110040,HB,Hemoglobin (g/dL) in Blood,13.642,g/dL,Visit 2,2,12.626,1.016,1.080468873752574
adlb,17501,10040,1750110040,HB,Hemoglobin (g/dL) in Blood,14.66,g/dL,Visit 3,3,12.626,2.0340000000000007,1.1610961507999367
adlb,17501,10040,1750110040,HCT,Hematocrit (%) in Blood - Calculated,37.696,%,Baseline,1,37.696,0,1
adlb,17501,10040,1750110040,HCT,Hematocrit (%) in Blood - Calculated,38.712,%,Visit 2,2,37.696,1.0160000000000053,1.0269524617996606
adlb,17501,10040,1750110040,HCT,Hematocrit (%) in Blood - Calculated,39.73,%,Visit 3,3,37.696,2.033999999999999,1.0539579796264855
adlb,17501,10040,1750110040,HDL,HDL Cholesterol (mg/dL) in Serum,45.438,mg/dL,Baseline,1,45.438,0,1
adlb,17501,10040,1750110040,HDL,HDL Cholesterol (mg/dL) in Serum,46.454,mg/dL,Visit 2,2,45.438,1.0159999999999982,1.022360139090629
adlb,17501,10040,1750110040,HDL,HDL Cholesterol (mg/dL) in Serum,47.472,mg/dL,Visit 3,3,45.438,2.033999999999999,1.04476429420309
adlb,17501,10040,1750110040,LDL,LDL Cholesterol (mg/dL) in Serum,56.481,mg/dL,Baseline,1,56.481,0,1
adlb,17501,10040,1750110040,LDL,LDL Cholesterol (mg/dL) in Serum,57.497,mg/dL,Visit 2,2,56.481,1.0159999999999982,1.0179883500646234
adlb,17501,10040,1750110040,LDL,LDL Cholesterol (mg/dL) in Serum,58.515,mg/dL,Visit 3,3,56.481,2.033999999999999,1.0360121102671696
adlb,17501,10040,1750110040,MAGNES,Magnesium (mg/dL) in Serum,2.469,mg/dL,Baseline,1,2.469,0,1
adlb,17501,10040,1750110040,MAGNES,Magnesium (mg/dL) in Serum,3.485,mg/dL,Visit 2,2,2.469,1.016,1.4115026326447955
adlb,17501,10040,1750110040,MAGNES,Magnesium (mg/dL) in Serum,4.503,mg/dL,Visit 3,3,2.469,2.0340000000000003,1.8238153098420415
adlb,17501,10040,1750110040,POTASS,Potassium (mmol/L) in Serum,4.659,mmol/L,Baseline,1,4.659,0,1
adlb,17501,10040,1750110040,POTASS,Potassium (mmol/L) in Serum,5.675,mmol/L,Visit 2,2,4.659,1.016,1.2180725477570293
adlb,17501,10040,1750110040,POTASS,Potassium (mmol/L) in Serum,6.693,mmol/L,Visit 3,3,4.659,2.034,1.4365743721828719
adlb,17501,10040,1750110040,SODIUM,Sodium (mmol/L) in Serum,138.814,mmol/L,Baseline,1,138.814,0,1
adlb,17501,10040,1750110040,SODIUM,Sodium (mmol/L) in Serum,139.83,mmol/L,Visit 2,2,138.814,1.0160000000000196,1.0073191464837843
adlb,17501,10040,1750110040,SODIUM,Sodium (mmol/L) in Serum,140.848,mmol/L,Visit 3,3,138.814,2.0340000000000202,1.0146527007362371
adlb,17501,10040,1750110040,URICAC,Urate (mg/dL) in Serum,8.097,mg/dL,Baseline,1,8.097,0,1
adlb,17501,10040,1750110040,URICAC,Urate (mg/dL) in Serum,9.113,mg/dL,Visit 2,2,8.097,1.016,1.1254785723107323
adlb,17501,10040,1750110040,URICAC,Urate (mg/dL) in Serum,10.131,mg/dL,Visit 3,3,8.097,2.0340000000000007,1.2512041496850685
adlb,17501,10041,1750110041,CALCIUM,Calcium (mg/dL) in Serum,9.1,mg/dL,Baseline,1,9.1,0,1
adlb,17501,10041,1750110041,CALCIUM,Calcium (mg/dL) in Serum,10.116,mg/dL,Visit 2,2,9.1,1.016,1.1116483516483517
adlb,17501,10041,1750110041,CALCIUM,Calcium (mg/dL) in Serum,11.134,mg/dL,Visit 3,3,9.1,2.0340000000000007,1.2235164835164836
adlb,17501,10041,1750110041,CREAT,Creatinine (mg/dL) in Serum,0.739,mg/dL,Baseline,1,0.739,0,1
adlb,17501,10041,1750110041,CREAT,Creatinine (mg/dL) in Serum,1.755,mg/dL,Visit 2,2,0.739,1.016,2.3748308525033828
adlb,17501,10041,1750110041,CREAT,Creatinine (mg/dL) in Serum,2.772,mg/dL,Visit 3,3,0.739,2.033,3.751014884979702
adlb,17501,10041,1750110041,GGT,Gamma Glutamyl Transferase (U/L) in Serum,13.433,U/L,Baseline,1,13.433,0,1
adlb,17501,10041,1750110041,GGT,Gamma Glutamyl Transferase (U/L) in Serum,14.449,U/L,Visit 2,2,13.433,1.016,1.0756346311322862
adlb,17501,10041,1750110041,GGT,Gamma Glutamyl Transferase (U/L) in Serum,15.467,U/L,Visit 3,3,13.433,2.0340000000000007,1.1514181493337303
adlb,17501,10041,1750110041,HB,Hemoglobin (g/dL) in Blood,13.333,g/dL,Baseline,1,13.333,0,1
adlb,17501,10041,1750110041,HB,Hemoglobin (g/dL) in Blood,14.349,g/dL,Visit 2,2,13.333,1.016,1.0762019050476261
adlb,17501,10041,1750110041,HB,Hemoglobin (g/dL) in Blood,15.367,g/dL,Visit 3,3,13.333,2.0340000000000007,1.1525538138453462
adlb,17501,10041,1750110041,HCT,Hematocrit (%) in Blood - Calculated,39.647,%,Baseline,1,39.647,0,1
adlb,17501,10041,1750110041,HCT,Hematocrit (%) in Blood - Calculated,40.663,%,Visit 2,2,39.647,1.0159999999999982,1.025626150780639
adlb,17501,10041,1750110041,HCT,Hematocrit (%) in Blood - Calculated,41.681,%,Visit 3,3,39.647,2.033999999999999,1.0513027467399803
adlb,17501,10041,1750110041,HDL,HDL Cholesterol (mg/dL) in Serum,49.296,mg/dL,Baseline,1,49.296,0,1
adlb,17501,10041,1750110041,HDL,HDL Cholesterol (mg/dL) in Serum,50.312,mg/dL,Visit 2,2,49.296,1.0159999999999982,1.0206101914962673
adlb,17501,10041,1750110041,HDL,HDL Cholesterol (mg/dL) in Serum,51.33,mg/dL,Visit 3,3,49.296,2.033999999999999,1.0412609542356377
adlb,17501,10041,1750110041,LDL,LDL Cholesterol (mg/dL) in Serum,59.622,mg/dL,Baseline,1,59.622,0,1
adlb,17501,10041,1750110041,LDL,LDL Cholesterol (mg/dL) in Serum,60.638,mg/dL,Visit 2,2,59.622,1.0159999999999982,1.0170406896783066
adlb,17501,10041,1750110041,LDL,LDL Cholesterol (mg/dL) in Serum,61.656,mg/dL,Visit 3,3,59.622,2.033999999999999,1.0341149240213343
adlb,17501,10041,1750110041,MAGNES,Magnesium (mg/dL) in Serum,1.689,mg/dL,Baseline,1,1.689,0,1
adlb,17501,10041,1750110041,MAGNES,Magnesium (mg/dL) in Serum,2.705,mg/dL,Visit 2,2,1.689,1.016,1.6015393724097098
adlb,17501,10041,1750110041,MAGNES,Magnesium (mg/dL) in Serum,3.723,mg/dL,Visit 3,3,1.689,2.034,2.2042628774422734
adlb,17501,10041,1750110041,POTASS,Potassium (mmol/L) in Serum,4.367,mmol/L,Baseline,1,4.367,0,1
adlb,17501,10041,1750110041,POTASS,Potassium (mmol/L) in Serum,5.383,mmol/L,Visit 2,2,4.367,1.016,1.2326539958781773
adlb,17501,10041,1750110041,POTASS,Potassium (mmol/L) in Serum,6.401,mmol/L,Visit 3,3,4.367,2.034,1.4657659720632013
adlb,17501,10041,1750110041,SODIUM,Sodium (mmol/L) in Serum,138.025,mmol/L,Baseline,1,138.025,0,1
adlb,17501,10041,1750110041,SODIUM,Sodium (mmol/L) in Serum,139.041,mmol/L,Visit 2,2,138.025,1.0159999999999911,1.0073609853287446
adlb,17501,10041,1750110041,SODIUM,Sodium (mmol/L) in Serum,140.059,mmol/L,Visit 3,3,138.025,2.033999999999992,1.0147364607860894
adlb,17501,10041,1750110041,URICAC,Urate (mg/dL) in Serum,9.496,mg/dL,Baseline,1,9.496,0,1
adlb,17501,10041,1750110041,URICAC,Urate (mg/dL) in Serum,10.511,mg/dL,Visit 2,2,9.496,1.0149999999999988,1.1068871103622577
adlb,17501,10041,1750110041,URICAC,Urate (mg/dL) in Serum,11.529,mg/dL,Visit 3,3,9.496,2.0329999999999995,1.214090143218197
adlb,17501,10042,1750110042,CALCIUM,Calcium (mg/dL) in Serum,9.687,mg/dL,Baseline,1,9.687,0,1
adlb,17501,10042,1750110042,CALCIUM,Calcium (mg/dL) in Serum,10.703,mg/dL,Visit 2,2,9.687,1.016,1.104882832662331
adlb,17501,10042,1750110042,CALCIUM,Calcium (mg/dL) in Serum,11.721,mg/dL,Visit 3,3,9.687,2.0340000000000007,1.2099721275936823
adlb,17501,10042,1750110042,CREAT,Creatinine (mg/dL) in Serum,0.662,mg/dL,Baseline,1,0.662,0,1
adlb,17501,10042,1750110042,CREAT,Creatinine (mg/dL) in Serum,1.678,mg/dL,Visit 2,2,0.662,1.016,2.534743202416918
adlb,17501,10042,1750110042,CREAT,Creatinine (mg/dL) in Serum,2.696,mg/dL,Visit 3,3,0.662,2.0340000000000003,4.072507552870091
adlb,17501,10042,1750110042,GGT,Gamma Glutamyl Transferase (U/L) in Serum,84.909,U/L,Baseline,1,84.909,0,1
adlb,17501,10042,1750110042,GGT,Gamma Glutamyl Transferase (U/L) in Serum,85.925,U/L,Visit 2,2,84.909,1.0159999999999911,1.011965751569327
adlb,17501,10042,1750110042,GGT,Gamma Glutamyl Transferase (U/L) in Serum,86.943,U/L,Visit 3,3,84.909,2.033999999999992,1.0239550577677277
adlb,17501,10042,1750110042,HB,Hemoglobin (g/dL) in Blood,14.451,g/dL,Baseline,1,14.451,0,1
adlb,17501,10042,1750110042,HB,Hemoglobin (g/dL) in Blood,15.467,g/dL,Visit 2,2,14.451,1.016,1.0703065531797107
adlb,17501,10042,1750110042,HB,Hemoglobin (g/dL) in Blood,16.485,g/dL,Visit 3,3,14.451,2.033999999999999,1.1407515050861532
adlb,17501,10042,1750110042,HDL,HDL Cholesterol (mg/dL) in Serum,35.775,mg/dL,Baseline,1,35.775,0,1
adlb,17501,10042,1750110042,HDL,HDL Cholesterol (mg/dL) in Serum,36.791,mg/dL,Visit 2,2,35.775,1.0159999999999982,1.0283997204751922
adlb,17501,10042,1750110042,HDL,HDL Cholesterol (mg/dL) in Serum,37.809,mg/dL,Visit 3,3,35.775,2.033999999999999,1.0568553459119496
adlb,17501,10042,1750110042,LDL,LDL Cholesterol (mg/dL) in Serum,58.961,mg/dL,Baseline,1,58.961,0,1
adlb,17501,10042,1750110042,LDL,LDL Cholesterol (mg/dL) in Serum,59.977,mg/dL,Visit 2,2,58.961,1.0159999999999982,1.0172317294482793
adlb,17501,10042,1750110042,LDL,LDL Cholesterol (mg/dL) in Serum,60.995,mg/dL,Visit 3,3,58.961,2.033999999999999,1.034497379623819
adlb,17501,10042,1750110042,MAGNES,Magnesium (mg/dL) in Serum,2.088,mg/dL,Baseline,1,2.088,0,1
adlb,17501,10042,1750110042,MAGNES,Magnesium (mg/dL) in Serum,3.104,mg/dL,Visit 2,2,2.088,1.016,1.4865900383141761
adlb,17501,10042,1750110042,MAGNES,Magnesium (mg/dL) in Serum,4.122,mg/dL,Visit 3,3,2.088,2.034,1.9741379310344827
adlb,17501,10042,1750110042,POTASS,Potassium (mmol/L) in Serum,3.986,mmol/L,Baseline,1,3.986,0,1
adlb,17501,10042,1750110042,POTASS,Potassium (mmol/L) in Serum,5.002,mmol/L,Visit 2,2,3.986,1.0159999999999996,1.2548921224284997
adlb,17501,10042,1750110042,POTASS,Potassium (mmol/L) in Serum,6.02,mmol/L,Visit 3,3,3.986,2.0339999999999994,1.5102860010035122
adlb,17501,10042,1750110042,SODIUM,Sodium (mmol/L) in Serum,143.956,mmol/L,Baseline,1,143.956,0,1
adlb,17501,10042,1750110042,SODIUM,Sodium (mmol/L) in Serum,144.972,mmol/L,Visit 2,2,143.956,1.0160000000000196,1.0070577120786908
adlb,17501,10042,1750110042,SODIUM,Sodium (mmol/L) in Serum,145.99,mmol/L,Visit 3,3,143.956,2.0340000000000202,1.0141293172913948
adlb,17501,10042,1750110042,URICAC,Urate (mg/dL) in Serum,4.596,mg/dL,Baseline,1,4.596,0,1
adlb,17501,10042,1750110042,URICAC,Urate (mg/dL) in Serum,5.612,mg/dL,Visit 2,2,4.596,1.016,1.2210617928633594
adlb,17501,10042,1750110042,URICAC,Urate (mg/dL) in Serum,6.63,mg/dL,Visit 3,3,4.596,2.034,1.4425587467362924
adlb,17501,10043,1750110043,CALCIUM,Calcium (mg/dL) in Serum,9.062,mg/dL,Baseline,1,9.062,0,1
adlb,17501,10043,1750110043,CALCIUM,Calcium (mg/dL) in Serum,10.078,mg/dL,Visit 2,2,9.062,1.016,1.1121165305672036
adlb,17501,10043,1750110043,CALCIUM,Calcium (mg/dL) in Serum,11.096,mg/dL,Visit 3,3,9.062,2.0340000000000007,1.2244537629662327
adlb,17501,10043,1750110043,CREAT,Creatinine (mg/dL) in Serum,0.902,mg/dL,Baseline,1,0.902,0,1
adlb,17501,10043,1750110043,CREAT,Creatinine (mg/dL) in Serum,1.918,mg/dL,Visit 2,2,0.902,1.016,2.1263858093126387
adlb,17501,10043,1750110043,CREAT,Creatinine (mg/dL) in Serum,2.936,mg/dL,Visit 3,3,0.902,2.034,3.254988913525499
adlb,17501,10043,1750110043,GGT,Gamma Glutamyl Transferase (U/L) in Serum,21.473,U/L,Baseline,1,21.473,0,1
adlb,17501,10043,1750110043,GGT,Gamma Glutamyl Transferase (U/L) in Serum,22.489,U/L,Visit 2,2,21.473,1.0160000000000018,1.0473152330834072
adlb,17501,10043,1750110043,GGT,Gamma Glutamyl Transferase (U/L) in Serum,23.507,U/L,Visit 3,3,21.473,2.0340000000000025,1.0947236063894195
adlb,17501,10043,1750110043,HB,Hemoglobin (g/dL) in Blood,13.004,g/dL,Baseline,1,13.004,0,1
adlb,17501,10043,1750110043,HB,Hemoglobin (g/dL) in Blood,15.038,g/dL,Visit 3,3,13.004,2.0340000000000007,1.1564134112580744
adlb,17501,10043,1750110043,HCT,Hematocrit (%) in Blood - Calculated,39.765,%,Baseline,1,39.765,0,1
adlb,17501,10043,1750110043,HCT,Hematocrit (%) in Blood - Calculated,40.781,%,Visit 2,2,39.765,1.0159999999999982,1.0255501068779076
adlb,17501,10043,1750110043,HCT,Hematocrit (%) in Blood - Calculated,41.799,%,Visit 3,3,39.765,2.033999999999999,1.0511505092417954
adlb,17501,10043,1750110043,HDL,HDL Cholesterol (mg/dL) in Serum,37.296,mg/dL,Baseline,1,37.296,0,1
adlb,17501,10043,1750110043,HDL,HDL Cholesterol (mg/dL) in Serum,38.312,mg/dL,Visit 2,2,37.296,1.0159999999999982,1.0272415272415272
adlb,17501,10043,1750110043,HDL,HDL Cholesterol (mg/dL) in Serum,39.33,mg/dL,Visit 3,3,37.296,2.033999999999999,1.0545366795366795
adlb,17501,10043,1750110043,LDL,LDL Cholesterol (mg/dL) in Serum,35.716,mg/dL,Baseline,1,35.716,0,1
adlb,17501,10043,1750110043,LDL,LDL Cholesterol (mg/dL) in Serum,36.732,mg/dL,Visit 2,2,35.716,1.0159999999999982,1.028446634561541
adlb,17501,10043,1750110043,LDL,LDL Cholesterol (mg/dL) in Serum,37.75,mg/dL,Visit 3,3,35.716,2.033999999999999,1.0569492664352111
adlb,17501,10043,1750110043,MAGNES,Magnesium (mg/dL) in Serum,2.31,mg/dL,Baseline,1,2.31,0,1
adlb,17501,10043,1750110043,MAGNES,Magnesium (mg/dL) in Serum,3.326,mg/dL,Visit 2,2,2.31,1.016,1.43982683982684
adlb,17501,10043,1750110043,MAGNES,Magnesium (mg/dL) in Serum,4.344,mg/dL,Visit 3,3,2.31,2.0340000000000003,1.8805194805194807
adlb,17501,10043,1750110043,POTASS,Potassium (mmol/L) in Serum,3.984,mmol/L,Baseline,1,3.984,0,1
adlb,17501,10043,1750110043,POTASS,Potassium (mmol/L) in Serum,5,mmol/L,Visit 2,2,3.984,1.016,1.2550200803212852
adlb,17501,10043,1750110043,POTASS,Potassium (mmol/L) in Serum,6.018,mmol/L,Visit 3,3,3.984,2.034,1.5105421686746987
adlb,17501,10043,1750110043,SODIUM,Sodium (mmol/L) in Serum,138.847,mmol/L,Baseline,1,138.847,0,1
adlb,17501,10043,1750110043,SODIUM,Sodium (mmol/L) in Serum,139.863,mmol/L,Visit 2,2,138.847,1.0159999999999911,1.00731740692993
adlb,17501,10043,1750110043,SODIUM,Sodium (mmol/L) in Serum,140.881,mmol/L,Visit 3,3,138.847,2.033999999999992,1.0146492182042104
adlb,17501,10043,1750110043,URICAC,Urate (mg/dL) in Serum,6.4,mg/dL,Baseline,1,6.4,0,1
adlb,17501,10043,1750110043,URICAC,Urate (mg/dL) in Serum,7.416,mg/dL,Visit 2,2,6.4,1.016,1.15875
adlb,17501,10043,1750110043,URICAC,Urate (mg/dL) in Serum,8.434,mg/dL,Visit 3,3,6.4,2.033999999999999,1.3178124999999998
adlb,17501,10044,1750110044,CALCIUM,Calcium (mg/dL) in Serum,9.286,mg/dL,Baseline,1,9.286,0,1
adlb,17501,10044,1750110044,CALCIUM,Calcium (mg/dL) in Serum,10.302,mg/dL,Visit 2,2,9.286,1.016,1.109412018091751
adlb,17501,10044,1750110044,CALCIUM,Calcium (mg/dL) in Serum,11.32,mg/dL,Visit 3,3,9.286,2.0340000000000007,1.2190394141718717
adlb,17501,10044,1750110044,CREAT,Creatinine (mg/dL) in Serum,0.847,mg/dL,Baseline,1,0.847,0,1
adlb,17501,10044,1750110044,CREAT,Creatinine (mg/dL) in Serum,1.863,mg/dL,Visit 2,2,0.847,1.016,2.1995277449822903
adlb,17501,10044,1750110044,CREAT,Creatinine (mg/dL) in Serum,2.881,mg/dL,Visit 3,3,0.847,2.034,3.4014167650531286
adlb,17501,10044,1750110044,GGT,Gamma Glutamyl Transferase (U/L) in Serum,20.6,U/L,Baseline,1,20.6,0,1
adlb,17501,10044,1750110044,GGT,Gamma Glutamyl Transferase (U/L) in Serum,21.616,U/L,Visit 2,2,20.6,1.0159999999999982,1.0493203883495146
adlb,17501,10044,1750110044,GGT,Gamma Glutamyl Transferase (U/L) in Serum,22.634,U/L,Visit 3,3,20.6,2.033999999999999,1.09873786407767
adlb,17501,10044,1750110044,HB,Hemoglobin (g/dL) in Blood,14.425,g/dL,Baseline,1,14.425,0,1
adlb,17501,10044,1750110044,HB,Hemoglobin (g/dL) in Blood,15.441,g/dL,Visit 2,2,14.425,1.016,1.0704332755632582
adlb,17501,10044,1750110044,HB,Hemoglobin (g/dL) in Blood,16.459,g/dL,Visit 3,3,14.425,2.033999999999999,1.141005199306759
adlb,17501,10044,1750110044,HCT,Hematocrit (%) in Blood - Calculated,42.074,%,Baseline,1,42.074,0,1
adlb,17501,10044,1750110044,HCT,Hematocrit (%) in Blood - Calculated,43.09,%,Visit 2,2,42.074,1.0160000000000053,1.0241479298379048
adlb,17501,10044,1750110044,HCT,Hematocrit (%) in Blood - Calculated,44.108,%,Visit 3,3,42.074,2.033999999999999,1.0483433949707657
adlb,17501,10044,1750110044,HDL,HDL Cholesterol (mg/dL) in Serum,51.618,mg/dL,Baseline,1,51.618,0,1
adlb,17501,10044,1750110044,HDL,HDL Cholesterol (mg/dL) in Serum,52.634,mg/dL,Visit 2,2,51.618,1.0159999999999982,1.0196830562981904
adlb,17501,10044,1750110044,HDL,HDL Cholesterol (mg/dL) in Serum,53.652,mg/dL,Visit 3,3,51.618,2.033999999999999,1.0394048587701965
adlb,17501,10044,1750110044,LDL,LDL Cholesterol (mg/dL) in Serum,100.19,mg/dL,Baseline,1,100.19,0,1
adlb,17501,10044,1750110044,LDL,LDL Cholesterol (mg/dL) in Serum,101.206,mg/dL,Visit 2,2,100.19,1.0160000000000053,1.0101407326080447
adlb,17501,10044,1750110044,LDL,LDL Cholesterol (mg/dL) in Serum,102.224,mg/dL,Visit 3,3,100.19,2.034000000000006,1.0203014272881525
adlb,17501,10044,1750110044,MAGNES,Magnesium (mg/dL) in Serum,2.201,mg/dL,Baseline,1,2.201,0,1
adlb,17501,10044,1750110044,MAGNES,Magnesium (mg/dL) in Serum,3.217,mg/dL,Visit 2,2,2.201,1.016,1.461608359836438
adlb,17501,10044,1750110044,MAGNES,Magnesium (mg/dL) in Serum,4.235,mg/dL,Visit 3,3,2.201,2.0340000000000003,1.9241253975465697
adlb,17501,10044,1750110044,POTASS,Potassium (mmol/L) in Serum,4.084,mmol/L,Baseline,1,4.084,0,1
adlb,17501,10044,1750110044,POTASS,Potassium (mmol/L) in Serum,5.1,mmol/L,Visit 2,2,4.084,1.016,1.248775710088149
adlb,17501,10044,1750110044,POTASS,Potassium (mmol/L) in Serum,6.118,mmol/L,Visit 3,3,4.084,2.0340000000000007,1.4980411361410384
adlb,17501,10044,1750110044,SODIUM,Sodium (mmol/L) in Serum,138.647,mmol/L,Baseline,1,138.647,0,1
adlb,17501,10044,1750110044,SODIUM,Sodium (mmol/L) in Serum,139.663,mmol/L,Visit 2,2,138.647,1.0160000000000196,1.00732796237928
adlb,17501,10044,1750110044,SODIUM,Sodium (mmol/L) in Serum,140.681,mmol/L,Visit 3,3,138.647,2.0340000000000202,1.0146703498813534
adlb,17501,10044,1750110044,URICAC,Urate (mg/dL) in Serum,4.619,mg/dL,Baseline,1,4.619,0,1
adlb,17501,10044,1750110044,URICAC,Urate (mg/dL) in Serum,5.635,mg/dL,Visit 2,2,4.619,1.016,1.219961030526088
adlb,17501,10044,1750110044,URICAC,Urate (mg/dL) in Serum,6.653,mg/dL,Visit 3,3,4.619,2.034,1.4403550552067548
adlb,17501,10045,1750110045,CALCIUM,Calcium (mg/dL) in Serum,9.274,mg/dL,Baseline,1,9.274,0,1
adlb,17501,10045,1750110045,CALCIUM,Calcium (mg/dL) in Serum,10.29,mg/dL,Visit 2,2,9.274,1.016,1.1095535906836316
adlb,17501,10045,1750110045,CALCIUM,Calcium (mg/dL) in Serum,11.308,mg/dL,Visit 3,3,9.274,2.0340000000000007,1.2193228380418375
adlb,17501,10045,1750110045,CREAT,Creatinine (mg/dL) in Serum,1.3,mg/dL,Baseline,1,1.3,0,1
adlb,17501,10045,1750110045,CREAT,Creatinine (mg/dL) in Serum,2.316,mg/dL,Visit 2,2,1.3,1.0159999999999998,1.7815384615384613
adlb,17501,10045,1750110045,CREAT,Creatinine (mg/dL) in Serum,3.334,mg/dL,Visit 3,3,1.3,2.034,2.5646153846153847
adlb,17501,10045,1750110045,GGT,Gamma Glutamyl Transferase (U/L) in Serum,26.002,U/L,Baseline,1,26.002,0,1
adlb,17501,10045,1750110045,GGT,Gamma Glutamyl Transferase (U/L) in Serum,27.018,U/L,Visit 2,2,26.002,1.0160000000000018,1.03907391739097
adlb,17501,10045,1750110045,GGT,Gamma Glutamyl Transferase (U/L) in Serum,28.036,U/L,Visit 3,3,26.002,2.0340000000000025,1.0782247519421584
adlb,17501,10045,1750110045,HB,Hemoglobin (g/dL) in Blood,12.045,g/dL,Baseline,1,12.045,0,1
adlb,17501,10045,1750110045,HB,Hemoglobin (g/dL) in Blood,13.061,g/dL,Visit 2,2,12.045,1.016,1.0843503528435035
adlb,17501,10045,1750110045,HB,Hemoglobin (g/dL) in Blood,14.079,g/dL,Visit 3,3,12.045,2.0340000000000007,1.1688667496886676
adlb,17501,10045,1750110045,HCT,Hematocrit (%) in Blood - Calculated,35.866,%,Baseline,1,35.866,0,1
adlb,17501,10045,1750110045,HCT,Hematocrit (%) in Blood - Calculated,36.882,%,Visit 2,2,35.866,1.0159999999999982,1.0283276640829755
adlb,17501,10045,1750110045,HCT,Hematocrit (%) in Blood - Calculated,37.9,%,Visit 3,3,35.866,2.033999999999999,1.0567110912842246
adlb,17501,10045,1750110045,HDL,HDL Cholesterol (mg/dL) in Serum,60.74,mg/dL,Baseline,1,60.74,0,1
adlb,17501,10045,1750110045,HDL,HDL Cholesterol (mg/dL) in Serum,61.756,mg/dL,Visit 2,2,60.74,1.0159999999999982,1.016727033256503
adlb,17501,10045,1750110045,HDL,HDL Cholesterol (mg/dL) in Serum,62.774,mg/dL,Visit 3,3,60.74,2.033999999999999,1.033486993743826
adlb,17501,10045,1750110045,LDL,LDL Cholesterol (mg/dL) in Serum,110.046,mg/dL,Baseline,1,110.046,0,1
adlb,17501,10045,1750110045,LDL,LDL Cholesterol (mg/dL) in Serum,111.062,mg/dL,Visit 2,2,110.046,1.0159999999999911,1.009232502771568
adlb,17501,10045,1750110045,LDL,LDL Cholesterol (mg/dL) in Serum,112.08,mg/dL,Visit 3,3,110.046,2.033999999999992,1.0184831797611906
adlb,17501,10045,1750110045,MAGNES,Magnesium (mg/dL) in Serum,2.44,mg/dL,Baseline,1,2.44,0,1
adlb,17501,10045,1750110045,MAGNES,Magnesium (mg/dL) in Serum,3.456,mg/dL,Visit 2,2,2.44,1.016,1.4163934426229507
adlb,17501,10045,1750110045,MAGNES,Magnesium (mg/dL) in Serum,4.474,mg/dL,Visit 3,3,2.44,2.0340000000000003,1.8336065573770493
adlb,17501,10045,1750110045,POTASS,Potassium (mmol/L) in Serum,4.518,mmol/L,Baseline,1,4.518,0,1
adlb,17501,10045,1750110045,POTASS,Potassium (mmol/L) in Serum,5.534,mmol/L,Visit 2,2,4.518,1.016,1.2248782647189023
adlb,17501,10045,1750110045,POTASS,Potassium (mmol/L) in Serum,6.552,mmol/L,Visit 3,3,4.518,2.034,1.450199203187251
adlb,17501,10045,1750110045,SODIUM,Sodium (mmol/L) in Serum,135.82,mmol/L,Baseline,1,135.82,0,1
adlb,17501,10045,1750110045,SODIUM,Sodium (mmol/L) in Serum,136.836,mmol/L,Visit 2,2,135.82,1.0160000000000196,1.0074804888823443
adlb,17501,10045,1750110045,SODIUM,Sodium (mmol/L) in Serum,137.854,mmol/L,Visit 3,3,135.82,2.0340000000000202,1.0149757031365043
adlb,17501,10045,1750110045,URICAC,Urate (mg/dL) in Serum,5.201,mg/dL,Baseline,1,5.201,0,1
adlb,17501,10045,1750110045,URICAC,Urate (mg/dL) in Serum,6.217,mg/dL,Visit 2,2,5.201,1.016,1.1953470486444915
adlb,17501,10045,1750110045,URICAC,Urate (mg/dL) in Serum,7.235,mg/dL,Visit 3,3,5.201,2.0340000000000007,1.3910786387233225
adlb,17501,10046,1750110046,CALCIUM,Calcium (mg/dL) in Serum,10.178,mg/dL,Baseline,1,10.178,0,1
adlb,17501,10046,1750110046,CALCIUM,Calcium (mg/dL) in Serum,11.193,mg/dL,Visit 2,2,10.178,1.0149999999999988,1.0997248968363136
adlb,17501,10046,1750110046,CALCIUM,Calcium (mg/dL) in Serum,12.211,mg/dL,Visit 3,3,10.178,2.0329999999999995,1.1997445470622912
adlb,17501,10046,1750110046,CREAT,Creatinine (mg/dL) in Serum,0.873,mg/dL,Baseline,1,0.873,0,1
adlb,17501,10046,1750110046,CREAT,Creatinine (mg/dL) in Serum,1.889,mg/dL,Visit 2,2,0.873,1.016,2.163802978235968
adlb,17501,10046,1750110046,CREAT,Creatinine (mg/dL) in Serum,2.907,mg/dL,Visit 3,3,0.873,2.034,3.329896907216495
adlb,17501,10046,1750110046,GGT,Gamma Glutamyl Transferase (U/L) in Serum,35.487,U/L,Baseline,1,35.487,0,1
adlb,17501,10046,1750110046,GGT,Gamma Glutamyl Transferase (U/L) in Serum,36.503,U/L,Visit 2,2,35.487,1.0159999999999982,1.0286302026094063
adlb,17501,10046,1750110046,GGT,Gamma Glutamyl Transferase (U/L) in Serum,37.521,U/L,Visit 3,3,35.487,2.033999999999999,1.0573167638853664
adlb,17501,10046,1750110046,HB,Hemoglobin (g/dL) in Blood,16.137,g/dL,Baseline,1,16.137,0,1
adlb,17501,10046,1750110046,HB,Hemoglobin (g/dL) in Blood,17.153,g/dL,Visit 2,2,16.137,1.0159999999999982,1.0629608973167255
adlb,17501,10046,1750110046,HB,Hemoglobin (g/dL) in Blood,18.171,g/dL,Visit 3,3,16.137,2.033999999999999,1.1260457334076965
adlb,17501,10046,1750110046,HCT,Hematocrit (%) in Blood - Calculated,52.364,%,Baseline,1,52.364,0,1
adlb,17501,10046,1750110046,HCT,Hematocrit (%) in Blood - Calculated,53.38,%,Visit 2,2,52.364,1.0160000000000053,1.0194026430372012
adlb,17501,10046,1750110046,HCT,Hematocrit (%) in Blood - Calculated,54.398,%,Visit 3,3,52.364,2.034000000000006,1.0388434802536095
adlb,17501,10046,1750110046,HDL,HDL Cholesterol (mg/dL) in Serum,62.076,mg/dL,Baseline,1,62.076,0,1
adlb,17501,10046,1750110046,HDL,HDL Cholesterol (mg/dL) in Serum,63.092,mg/dL,Visit 2,2,62.076,1.0159999999999982,1.0163670339583737
adlb,17501,10046,1750110046,HDL,HDL Cholesterol (mg/dL) in Serum,64.11,mg/dL,Visit 3,3,62.076,2.033999999999999,1.0327662864875313
adlb,17501,10046,1750110046,LDL,LDL Cholesterol (mg/dL) in Serum,78.715,mg/dL,Baseline,1,78.715,0,1
adlb,17501,10046,1750110046,LDL,LDL Cholesterol (mg/dL) in Serum,79.731,mg/dL,Visit 2,2,78.715,1.0159999999999911,1.0129073238899828
adlb,17501,10046,1750110046,LDL,LDL Cholesterol (mg/dL) in Serum,80.749,mg/dL,Visit 3,3,78.715,2.033999999999992,1.0258400558978593
adlb,17501,10046,1750110046,MAGNES,Magnesium (mg/dL) in Serum,2.174,mg/dL,Baseline,1,2.174,0,1
adlb,17501,10046,1750110046,MAGNES,Magnesium (mg/dL) in Serum,3.19,mg/dL,Visit 2,2,2.174,1.016,1.467341306347746
adlb,17501,10046,1750110046,MAGNES,Magnesium (mg/dL) in Serum,4.208,mg/dL,Visit 3,3,2.174,2.0340000000000003,1.9356025758969642
adlb,17501,10046,1750110046,POTASS,Potassium (mmol/L) in Serum,4.178,mmol/L,Baseline,1,4.178,0,1
adlb,17501,10046,1750110046,POTASS,Potassium (mmol/L) in Serum,5.194,mmol/L,Visit 2,2,4.178,1.016,1.2431785543322165
adlb,17501,10046,1750110046,POTASS,Potassium (mmol/L) in Serum,6.212,mmol/L,Visit 3,3,4.178,2.034,1.4868358066060317
adlb,17501,10046,1750110046,SODIUM,Sodium (mmol/L) in Serum,140.419,mmol/L,Baseline,1,140.419,0,1
adlb,17501,10046,1750110046,SODIUM,Sodium (mmol/L) in Serum,141.435,mmol/L,Visit 2,2,140.419,1.0159999999999911,1.0072354880749756
adlb,17501,10046,1750110046,SODIUM,Sodium (mmol/L) in Serum,142.453,mmol/L,Visit 3,3,140.419,2.033999999999992,1.0144852192367129
adlb,17501,10046,1750110046,URICAC,Urate (mg/dL) in Serum,7.94,mg/dL,Baseline,1,7.94,0,1
adlb,17501,10046,1750110046,URICAC,Urate (mg/dL) in Serum,8.956,mg/dL,Visit 2,2,7.94,1.0159999999999991,1.1279596977329973
adlb,17501,10046,1750110046,URICAC,Urate (mg/dL) in Serum,9.974,mg/dL,Visit 3,3,7.94,2.034,1.2561712846347606
adlb,17501,10047,1750110047,CALCIUM,Calcium (mg/dL) in Serum,9.252,mg/dL,Baseline,1,9.252,0,1
adlb,17501,10047,1750110047,CALCIUM,Calcium (mg/dL) in Serum,10.268,mg/dL,Visit 2,2,9.252,1.016,1.109814094249892
adlb,17501,10047,1750110047,CALCIUM,Calcium (mg/dL) in Serum,11.286,mg/dL,Visit 3,3,9.252,2.033999999999999,1.2198443579766536
adlb,17501,10047,1750110047,CREAT,Creatinine (mg/dL) in Serum,0.896,mg/dL,Baseline,1,0.896,0,1
adlb,17501,10047,1750110047,CREAT,Creatinine (mg/dL) in Serum,1.912,mg/dL,Visit 2,2,0.896,1.016,2.133928571428571
adlb,17501,10047,1750110047,CREAT,Creatinine (mg/dL) in Serum,2.93,mg/dL,Visit 3,3,0.896,2.0340000000000003,3.270089285714286
adlb,17501,10047,1750110047,GGT,Gamma Glutamyl Transferase (U/L) in Serum,9.084,U/L,Baseline,1,9.084,0,1
adlb,17501,10047,1750110047,GGT,Gamma Glutamyl Transferase (U/L) in Serum,10.1,U/L,Visit 2,2,9.084,1.016,1.1118450022016733
adlb,17501,10047,1750110047,GGT,Gamma Glutamyl Transferase (U/L) in Serum,11.118,U/L,Visit 3,3,9.084,2.0340000000000007,1.2239101717305152
adlb,17501,10047,1750110047,HB,Hemoglobin (g/dL) in Blood,16.307,g/dL,Baseline,1,16.307,0,1
adlb,17501,10047,1750110047,HB,Hemoglobin (g/dL) in Blood,17.323,g/dL,Visit 2,2,16.307,1.0160000000000018,1.0623045317961612
adlb,17501,10047,1750110047,HB,Hemoglobin (g/dL) in Blood,18.341,g/dL,Visit 3,3,16.307,2.0340000000000025,1.1247317103084566
adlb,17501,10047,1750110047,HCT,Hematocrit (%) in Blood - Calculated,46.742,%,Baseline,1,46.742,0,1
adlb,17501,10047,1750110047,HCT,Hematocrit (%) in Blood - Calculated,47.758,%,Visit 2,2,46.742,1.0160000000000053,1.0217363399084336
adlb,17501,10047,1750110047,HCT,Hematocrit (%) in Blood - Calculated,48.776,%,Visit 3,3,46.742,2.034000000000006,1.0435154678875531
adlb,17501,10047,1750110047,HDL,HDL Cholesterol (mg/dL) in Serum,49.031,mg/dL,Baseline,1,49.031,0,1
adlb,17501,10047,1750110047,HDL,HDL Cholesterol (mg/dL) in Serum,50.047,mg/dL,Visit 2,2,49.031,1.0159999999999982,1.0207215843038078
adlb,17501,10047,1750110047,HDL,HDL Cholesterol (mg/dL) in Serum,51.065,mg/dL,Visit 3,3,49.031,2.033999999999999,1.0414839591278986
adlb,17501,10047,1750110047,LDL,LDL Cholesterol (mg/dL) in Serum,83.641,mg/dL,Baseline,1,83.641,0,1
adlb,17501,10047,1750110047,LDL,LDL Cholesterol (mg/dL) in Serum,84.657,mg/dL,Visit 2,2,83.641,1.0159999999999911,1.0121471527121866
adlb,17501,10047,1750110047,LDL,LDL Cholesterol (mg/dL) in Serum,85.675,mg/dL,Visit 3,3,83.641,2.033999999999992,1.0243182171423104
adlb,17501,10047,1750110047,MAGNES,Magnesium (mg/dL) in Serum,2.22,mg/dL,Baseline,1,2.22,0,1
adlb,17501,10047,1750110047,MAGNES,Magnesium (mg/dL) in Serum,3.236,mg/dL,Visit 2,2,2.22,1.016,1.4576576576576576
adlb,17501,10047,1750110047,MAGNES,Magnesium (mg/dL) in Serum,4.254,mg/dL,Visit 3,3,2.22,2.0339999999999994,1.9162162162162157
adlb,17501,10047,1750110047,POTASS,Potassium (mmol/L) in Serum,4.601,mmol/L,Baseline,1,4.601,0,1
adlb,17501,10047,1750110047,POTASS,Potassium (mmol/L) in Serum,5.617,mmol/L,Visit 2,2,4.601,1.016,1.2208215605303194
adlb,17501,10047,1750110047,POTASS,Potassium (mmol/L) in Serum,6.635,mmol/L,Visit 3,3,4.601,2.034,1.442077809171919
adlb,17501,10047,1750110047,SODIUM,Sodium (mmol/L) in Serum,139.734,mmol/L,Baseline,1,139.734,0,1
adlb,17501,10047,1750110047,SODIUM,Sodium (mmol/L) in Serum,140.75,mmol/L,Visit 2,2,139.734,1.0159999999999911,1.0072709576767285
adlb,17501,10047,1750110047,SODIUM,Sodium (mmol/L) in Serum,141.768,mmol/L,Visit 3,3,139.734,2.033999999999992,1.0145562282622698
adlb,17501,10047,1750110047,URICAC,Urate (mg/dL) in Serum,9.737,mg/dL,Baseline,1,9.737,0,1
adlb,17501,10047,1750110047,URICAC,Urate (mg/dL) in Serum,10.753,mg/dL,Visit 2,2,9.737,1.016,1.104344253876964
adlb,17501,10047,1750110047,URICAC,Urate (mg/dL) in Serum,11.771,mg/dL,Visit 3,3,9.737,2.0340000000000007,1.2088939098284894
adlb,17501,10048,1750110048,CALCIUM,Calcium (mg/dL) in Serum,9.61,mg/dL,Baseline,1,9.61,0,1
adlb,17501,10048,1750110048,CALCIUM,Calcium (mg/dL) in Serum,10.626,mg/dL,Visit 2,2,9.61,1.016,1.1057232049947971
adlb,17501,10048,1750110048,CALCIUM,Calcium (mg/dL) in Serum,11.644,mg/dL,Visit 3,3,9.61,2.0340000000000007,1.2116545265348595
adlb,17501,10048,1750110048,CREAT,Creatinine (mg/dL) in Serum,1.486,mg/dL,Baseline,1,1.486,0,1
adlb,17501,10048,1750110048,CREAT,Creatinine (mg/dL) in Serum,2.502,mg/dL,Visit 2,2,1.486,1.0159999999999998,1.68371467025572
adlb,17501,10048,1750110048,CREAT,Creatinine (mg/dL) in Serum,3.52,mg/dL,Visit 3,3,1.486,2.034,2.3687752355316287
adlb,17501,10048,1750110048,GGT,Gamma Glutamyl Transferase (U/L) in Serum,33.045,U/L,Baseline,1,33.045,0,1
adlb,17501,10048,1750110048,GGT,Gamma Glutamyl Transferase (U/L) in Serum,34.061,U/L,Visit 2,2,33.045,1.0159999999999982,1.0307459524890301
adlb,17501,10048,1750110048,GGT,Gamma Glutamyl Transferase (U/L) in Serum,35.079,U/L,Visit 3,3,33.045,2.033999999999999,1.0615524285065818
adlb,17501,10048,1750110048,HB,Hemoglobin (g/dL) in Blood,10.614,g/dL,Baseline,1,10.614,0,1
adlb,17501,10048,1750110048,HB,Hemoglobin (g/dL) in Blood,11.63,g/dL,Visit 2,2,10.614,1.016,1.0957226304880348
adlb,17501,10048,1750110048,HB,Hemoglobin (g/dL) in Blood,12.648,g/dL,Visit 3,3,10.614,2.033999999999999,1.1916336913510457
adlb,17501,10048,1750110048,HCT,Hematocrit (%) in Blood - Calculated,32.089,%,Baseline,1,32.089,0,1
adlb,17501,10048,1750110048,HCT,Hematocrit (%) in Blood - Calculated,33.105,%,Visit 2,2,32.089,1.0159999999999982,1.0316619402287388
adlb,17501,10048,1750110048,HCT,Hematocrit (%) in Blood - Calculated,34.123,%,Visit 3,3,32.089,2.033999999999999,1.0633862071114712
adlb,17501,10048,1750110048,HDL,HDL Cholesterol (mg/dL) in Serum,55.255,mg/dL,Baseline,1,55.255,0,1
adlb,17501,10048,1750110048,HDL,HDL Cholesterol (mg/dL) in Serum,56.271,mg/dL,Visit 2,2,55.255,1.0159999999999982,1.0183874762464935
adlb,17501,10048,1750110048,HDL,HDL Cholesterol (mg/dL) in Serum,57.289,mg/dL,Visit 3,3,55.255,2.033999999999999,1.0368111483123699
adlb,17501,10048,1750110048,LDL,LDL Cholesterol (mg/dL) in Serum,80.188,mg/dL,Baseline,1,80.188,0,1
adlb,17501,10048,1750110048,LDL,LDL Cholesterol (mg/dL) in Serum,81.204,mg/dL,Visit 2,2,80.188,1.0159999999999911,1.0126702249713173
adlb,17501,10048,1750110048,LDL,LDL Cholesterol (mg/dL) in Serum,82.222,mg/dL,Visit 3,3,80.188,2.033999999999992,1.0253653913303735
adlb,17501,10048,1750110048,MAGNES,Magnesium (mg/dL) in Serum,1.958,mg/dL,Baseline,1,1.958,0,1
adlb,17501,10048,1750110048,MAGNES,Magnesium (mg/dL) in Serum,2.974,mg/dL,Visit 2,2,1.958,1.0160000000000002,1.5188968335035753
adlb,17501,10048,1750110048,MAGNES,Magnesium (mg/dL) in Serum,3.992,mg/dL,Visit 3,3,1.958,2.034,2.038815117466803
adlb,17501,10048,1750110048,POTASS,Potassium (mmol/L) in Serum,4.818,mmol/L,Baseline,1,4.818,0,1
adlb,17501,10048,1750110048,POTASS,Potassium (mmol/L) in Serum,5.834,mmol/L,Visit 2,2,4.818,1.016,1.2108758821087588
adlb,17501,10048,1750110048,POTASS,Potassium (mmol/L) in Serum,6.852,mmol/L,Visit 3,3,4.818,2.0340000000000007,1.4221668742216689
adlb,17501,10048,1750110048,SODIUM,Sodium (mmol/L) in Serum,137.325,mmol/L,Baseline,1,137.325,0,1
adlb,17501,10048,1750110048,SODIUM,Sodium (mmol/L) in Serum,138.341,mmol/L,Visit 2,2,137.325,1.0160000000000196,1.0073985071909706
adlb,17501,10048,1750110048,SODIUM,Sodium (mmol/L) in Serum,139.359,mmol/L,Visit 3,3,137.325,2.0340000000000202,1.0148115783724743
adlb,17501,10048,1750110048,URICAC,Urate (mg/dL) in Serum,8.015,mg/dL,Baseline,1,8.015,0,1
adlb,17501,10048,1750110048,URICAC,Urate (mg/dL) in Serum,9.031,mg/dL,Visit 2,2,8.015,1.016,1.1267623206487836
adlb,17501,10048,1750110048,URICAC,Urate (mg/dL) in Serum,10.049,mg/dL,Visit 3,3,8.015,2.033999999999999,1.2537741734248282
adlb,17501,10049,1750110049,CALCIUM,Calcium (mg/dL) in Serum,8.699,mg/dL,Baseline,1,8.699,0,1
adlb,17501,10049,1750110049,CALCIUM,Calcium (mg/dL) in Serum,9.715,mg/dL,Visit 2,2,8.699,1.016,1.116795033911944
adlb,17501,10049,1750110049,CALCIUM,Calcium (mg/dL) in Serum,10.733,mg/dL,Visit 3,3,8.699,2.0340000000000007,1.2338199793079665
adlb,17501,10049,1750110049,CREAT,Creatinine (mg/dL) in Serum,1.122,mg/dL,Baseline,1,1.122,0,1
adlb,17501,10049,1750110049,CREAT,Creatinine (mg/dL) in Serum,2.138,mg/dL,Visit 2,2,1.122,1.0159999999999998,1.905525846702317
adlb,17501,10049,1750110049,CREAT,Creatinine (mg/dL) in Serum,3.156,mg/dL,Visit 3,3,1.122,2.034,2.81283422459893
adlb,17501,10049,1750110049,GGT,Gamma Glutamyl Transferase (U/L) in Serum,54.188,U/L,Baseline,1,54.188,0,1
adlb,17501,10049,1750110049,GGT,Gamma Glutamyl Transferase (U/L) in Serum,55.203,U/L,Visit 2,2,54.188,1.0150000000000006,1.0187310843729238
adlb,17501,10049,1750110049,GGT,Gamma Glutamyl Transferase (U/L) in Serum,56.221,U/L,Visit 3,3,54.188,2.032999999999994,1.0375175315568022
adlb,17501,10049,1750110049,HB,Hemoglobin (g/dL) in Blood,13.524,g/dL,Baseline,1,13.524,0,1
adlb,17501,10049,1750110049,HB,Hemoglobin (g/dL) in Blood,14.54,g/dL,Visit 2,2,13.524,1.016,1.075125702454895
adlb,17501,10049,1750110049,HB,Hemoglobin (g/dL) in Blood,15.558,g/dL,Visit 3,3,13.524,2.0340000000000007,1.150399290150843
adlb,17501,10049,1750110049,HCT,Hematocrit (%) in Blood - Calculated,42.966,%,Baseline,1,42.966,0,1
adlb,17501,10049,1750110049,HCT,Hematocrit (%) in Blood - Calculated,43.982,%,Visit 2,2,42.966,1.0159999999999982,1.0236466042917656
adlb,17501,10049,1750110049,HCT,Hematocrit (%) in Blood - Calculated,45,%,Visit 3,3,42.966,2.033999999999999,1.0473397570171763
adlb,17501,10049,1750110049,HDL,HDL Cholesterol (mg/dL) in Serum,38.724,mg/dL,Baseline,1,38.724,0,1
adlb,17501,10049,1750110049,HDL,HDL Cholesterol (mg/dL) in Serum,39.74,mg/dL,Visit 2,2,38.724,1.0160000000000053,1.0262369589918399
adlb,17501,10049,1750110049,HDL,HDL Cholesterol (mg/dL) in Serum,40.758,mg/dL,Visit 3,3,38.724,2.034000000000006,1.0525255655407502
adlb,17501,10049,1750110049,MAGNES,Magnesium (mg/dL) in Serum,2.633,mg/dL,Baseline,1,2.633,0,1
adlb,17501,10049,1750110049,MAGNES,Magnesium (mg/dL) in Serum,3.649,mg/dL,Visit 2,2,2.633,1.016,1.3858716293201672
adlb,17501,10049,1750110049,MAGNES,Magnesium (mg/dL) in Serum,4.667,mg/dL,Visit 3,3,2.633,2.034,1.7725028484618306
adlb,17501,10049,1750110049,POTASS,Potassium (mmol/L) in Serum,4.438,mmol/L,Baseline,1,4.438,0,1
adlb,17501,10049,1750110049,POTASS,Potassium (mmol/L) in Serum,5.454,mmol/L,Visit 2,2,4.438,1.016,1.2289319513294277
adlb,17501,10049,1750110049,POTASS,Potassium (mmol/L) in Serum,6.472,mmol/L,Visit 3,3,4.438,2.0340000000000007,1.4583145561063544
adlb,17501,10049,1750110049,SODIUM,Sodium (mmol/L) in Serum,141.977,mmol/L,Baseline,1,141.977,0,1
adlb,17501,10049,1750110049,SODIUM,Sodium (mmol/L) in Serum,142.993,mmol/L,Visit 2,2,141.977,1.0159999999999911,1.0071560886622482
adlb,17501,10049,1750110049,SODIUM,Sodium (mmol/L) in Serum,144.011,mmol/L,Visit 3,3,141.977,2.033999999999992,1.0143262641132014
adlb,17501,10049,1750110049,URICAC,Urate (mg/dL) in Serum,9.379,mg/dL,Baseline,1,9.379,0,1
adlb,17501,10049,1750110049,URICAC,Urate (mg/dL) in Serum,10.395,mg/dL,Visit 2,2,9.379,1.016,1.1083271137647936
adlb,17501,10049,1750110049,URICAC,Urate (mg/dL) in Serum,11.413,mg/dL,Visit 3,3,9.379,2.0340000000000007,1.216867469879518
adlb,17501,10050,1750110050,CALCIUM,Calcium (mg/dL) in Serum,9.331,mg/dL,Baseline,1,9.331,0,1
adlb,17501,10050,1750110050,CALCIUM,Calcium (mg/dL) in Serum,10.347,mg/dL,Visit 2,2,9.331,1.016,1.1088843639481298
adlb,17501,10050,1750110050,CALCIUM,Calcium (mg/dL) in Serum,11.365,mg/dL,Visit 3,3,9.331,2.0340000000000007,1.2179830671953704
adlb,17501,10050,1750110050,CREAT,Creatinine (mg/dL) in Serum,1.314,mg/dL,Baseline,1,1.314,0,1
adlb,17501,10050,1750110050,CREAT,Creatinine (mg/dL) in Serum,2.33,mg/dL,Visit 2,2,1.314,1.016,1.7732115677321156
adlb,17501,10050,1750110050,CREAT,Creatinine (mg/dL) in Serum,3.348,mg/dL,Visit 3,3,1.314,2.034,2.547945205479452
adlb,17501,10050,1750110050,GGT,Gamma Glutamyl Transferase (U/L) in Serum,135.967,U/L,Baseline,1,135.967,0,1
adlb,17501,10050,1750110050,GGT,Gamma Glutamyl Transferase (U/L) in Serum,136.983,U/L,Visit 2,2,135.967,1.0159999999999911,1.007472401391514
adlb,17501,10050,1750110050,GGT,Gamma Glutamyl Transferase (U/L) in Serum,138.001,U/L,Visit 3,3,135.967,2.033999999999992,1.0149595122345862
adlb,17501,10050,1750110050,HB,Hemoglobin (g/dL) in Blood,13.947,g/dL,Baseline,1,13.947,0,1
adlb,17501,10050,1750110050,HB,Hemoglobin (g/dL) in Blood,14.963,g/dL,Visit 2,2,13.947,1.016,1.0728472072847208
adlb,17501,10050,1750110050,HB,Hemoglobin (g/dL) in Blood,15.981,g/dL,Visit 3,3,13.947,2.0340000000000007,1.1458378145837815
adlb,17501,10050,1750110050,HCT,Hematocrit (%) in Blood - Calculated,42.745,%,Baseline,1,42.745,0,1
adlb,17501,10050,1750110050,HCT,Hematocrit (%) in Blood - Calculated,43.761,%,Visit 2,2,42.745,1.0160000000000053,1.023768861855188
adlb,17501,10050,1750110050,HCT,Hematocrit (%) in Blood - Calculated,44.779,%,Visit 3,3,42.745,2.034000000000006,1.0475845128085157
adlb,17501,10050,1750110050,HDL,HDL Cholesterol (mg/dL) in Serum,48.872,mg/dL,Baseline,1,48.872,0,1
adlb,17501,10050,1750110050,HDL,HDL Cholesterol (mg/dL) in Serum,49.888,mg/dL,Visit 2,2,48.872,1.0159999999999982,1.020788999836307
adlb,17501,10050,1750110050,HDL,HDL Cholesterol (mg/dL) in Serum,50.906,mg/dL,Visit 3,3,48.872,2.033999999999999,1.0416189229006383
adlb,17501,10050,1750110050,LDL,LDL Cholesterol (mg/dL) in Serum,90.005,mg/dL,Baseline,1,90.005,0,1
adlb,17501,10050,1750110050,LDL,LDL Cholesterol (mg/dL) in Serum,91.021,mg/dL,Visit 2,2,90.005,1.0160000000000053,1.0112882617632355
adlb,17501,10050,1750110050,LDL,LDL Cholesterol (mg/dL) in Serum,92.039,mg/dL,Visit 3,3,90.005,2.034000000000006,1.0225987445141937
adlb,17501,10050,1750110050,MAGNES,Magnesium (mg/dL) in Serum,2.098,mg/dL,Baseline,1,2.098,0,1
adlb,17501,10050,1750110050,MAGNES,Magnesium (mg/dL) in Serum,3.114,mg/dL,Visit 2,2,2.098,1.016,1.484270734032412
adlb,17501,10050,1750110050,MAGNES,Magnesium (mg/dL) in Serum,4.132,mg/dL,Visit 3,3,2.098,2.034,1.9694947569113441
adlb,17501,10050,1750110050,POTASS,Potassium (mmol/L) in Serum,4.988,mmol/L,Baseline,1,4.988,0,1
adlb,17501,10050,1750110050,POTASS,Potassium (mmol/L) in Serum,6.004,mmol/L,Visit 2,2,4.988,1.0159999999999991,1.2036888532477945
adlb,17501,10050,1750110050,POTASS,Potassium (mmol/L) in Serum,7.022,mmol/L,Visit 3,3,4.988,2.034,1.4077786688051321
adlb,17501,10050,1750110050,SODIUM,Sodium (mmol/L) in Serum,135.764,mmol/L,Baseline,1,135.764,0,1
adlb,17501,10050,1750110050,SODIUM,Sodium (mmol/L) in Serum,137.797,mmol/L,Visit 3,3,135.764,2.032999999999987,1.0149745145988627
adlb,17501,10050,1750110050,URICAC,Urate (mg/dL) in Serum,6.809,mg/dL,Baseline,1,6.809,0,1
adlb,17501,10050,1750110050,URICAC,Urate (mg/dL) in Serum,7.825,mg/dL,Visit 2,2,6.809,1.016,1.1492142752239682
adlb,17501,10050,1750110050,URICAC,Urate (mg/dL) in Serum,8.843,mg/dL,Visit 3,3,6.809,2.034,1.2987222793361726
adlb,17501,10051,1750110051,CALCIUM,Calcium (mg/dL) in Serum,9.72,mg/dL,Baseline,1,9.72,0,1
adlb,17501,10051,1750110051,CALCIUM,Calcium (mg/dL) in Serum,10.736,mg/dL,Visit 2,2,9.72,1.016,1.1045267489711934
adlb,17501,10051,1750110051,CALCIUM,Calcium (mg/dL) in Serum,11.754,mg/dL,Visit 3,3,9.72,2.033999999999999,1.209259259259259
adlb,17501,10051,1750110051,CREAT,Creatinine (mg/dL) in Serum,1.376,mg/dL,Baseline,1,1.376,0,1
adlb,17501,10051,1750110051,CREAT,Creatinine (mg/dL) in Serum,2.392,mg/dL,Visit 2,2,1.376,1.016,1.7383720930232558
adlb,17501,10051,1750110051,CREAT,Creatinine (mg/dL) in Serum,3.41,mg/dL,Visit 3,3,1.376,2.0340000000000003,2.478197674418605
adlb,17501,10051,1750110051,GGT,Gamma Glutamyl Transferase (U/L) in Serum,13.144,U/L,Baseline,1,13.144,0,1
adlb,17501,10051,1750110051,GGT,Gamma Glutamyl Transferase (U/L) in Serum,14.16,U/L,Visit 2,2,13.144,1.016,1.0772976262933658
adlb,17501,10051,1750110051,GGT,Gamma Glutamyl Transferase (U/L) in Serum,15.178,U/L,Visit 3,3,13.144,2.0340000000000007,1.1547474132684115
adlb,17501,10051,1750110051,HB,Hemoglobin (g/dL) in Blood,16.084,g/dL,Baseline,1,16.084,0,1
adlb,17501,10051,1750110051,HB,Hemoglobin (g/dL) in Blood,17.1,g/dL,Visit 2,2,16.084,1.0160000000000018,1.0631683660780902
adlb,17501,10051,1750110051,HB,Hemoglobin (g/dL) in Blood,18.118,g/dL,Visit 3,3,16.084,2.033999999999999,1.126461079333499
adlb,17501,10051,1750110051,HCT,Hematocrit (%) in Blood - Calculated,45.855,%,Baseline,1,45.855,0,1
adlb,17501,10051,1750110051,HCT,Hematocrit (%) in Blood - Calculated,46.871,%,Visit 2,2,45.855,1.0160000000000053,1.0221567986042963
adlb,17501,10051,1750110051,HCT,Hematocrit (%) in Blood - Calculated,47.889,%,Visit 3,3,45.855,2.034000000000006,1.0443572129538765
adlb,17501,10051,1750110051,HDL,HDL Cholesterol (mg/dL) in Serum,29.558,mg/dL,Baseline,1,29.558,0,1
adlb,17501,10051,1750110051,HDL,HDL Cholesterol (mg/dL) in Serum,30.574,mg/dL,Visit 2,2,29.558,1.0160000000000018,1.0343730969619054
adlb,17501,10051,1750110051,HDL,HDL Cholesterol (mg/dL) in Serum,31.592,mg/dL,Visit 3,3,29.558,2.033999999999999,1.0688138575005075
adlb,17501,10051,1750110051,LDL,LDL Cholesterol (mg/dL) in Serum,60.459,mg/dL,Baseline,1,60.459,0,1
adlb,17501,10051,1750110051,LDL,LDL Cholesterol (mg/dL) in Serum,61.475,mg/dL,Visit 2,2,60.459,1.0159999999999982,1.016804776790883
adlb,17501,10051,1750110051,LDL,LDL Cholesterol (mg/dL) in Serum,62.493,mg/dL,Visit 3,3,60.459,2.033999999999999,1.0336426338510396
adlb,17501,10051,1750110051,MAGNES,Magnesium (mg/dL) in Serum,2.192,mg/dL,Baseline,1,2.192,0,1
adlb,17501,10051,1750110051,MAGNES,Magnesium (mg/dL) in Serum,3.208,mg/dL,Visit 2,2,2.192,1.016,1.4635036496350364
adlb,17501,10051,1750110051,MAGNES,Magnesium (mg/dL) in Serum,4.226,mg/dL,Visit 3,3,2.192,2.034,1.927919708029197
adlb,17501,10051,1750110051,POTASS,Potassium (mmol/L) in Serum,4.556,mmol/L,Baseline,1,4.556,0,1
adlb,17501,10051,1750110051,POTASS,Potassium (mmol/L) in Serum,5.572,mmol/L,Visit 2,2,4.556,1.016,1.2230026338893767
adlb,17501,10051,1750110051,POTASS,Potassium (mmol/L) in Serum,6.59,mmol/L,Visit 3,3,4.556,2.034,1.4464442493415277
adlb,17501,10051,1750110051,SODIUM,Sodium (mmol/L) in Serum,139.487,mmol/L,Baseline,1,139.487,0,1
adlb,17501,10051,1750110051,SODIUM,Sodium (mmol/L) in Serum,140.503,mmol/L,Visit 2,2,139.487,1.0159999999999911,1.0072838329019909
adlb,17501,10051,1750110051,SODIUM,Sodium (mmol/L) in Serum,141.521,mmol/L,Visit 3,3,139.487,2.033999999999992,1.0145820040577258
adlb,17501,10051,1750110051,URICAC,Urate (mg/dL) in Serum,4.658,mg/dL,Baseline,1,4.658,0,1
adlb,17501,10051,1750110051,URICAC,Urate (mg/dL) in Serum,5.674,mg/dL,Visit 2,2,4.658,1.016,1.2181193645341348
adlb,17501,10051,1750110051,URICAC,Urate (mg/dL) in Serum,6.692,mg/dL,Visit 3,3,4.658,2.034,1.4366680978960926
adlb,17501,10052,1750110052,CALCIUM,Calcium (mg/dL) in Serum,9.624,mg/dL,Baseline,1,9.624,0,1
adlb,17501,10052,1750110052,CALCIUM,Calcium (mg/dL) in Serum,10.64,mg/dL,Visit 2,2,9.624,1.016,1.1055694098088114
adlb,17501,10052,1750110052,CALCIUM,Calcium (mg/dL) in Serum,11.658,mg/dL,Visit 3,3,9.624,2.033999999999999,1.2113466334164587
adlb,17501,10052,1750110052,CREAT,Creatinine (mg/dL) in Serum,0.919,mg/dL,Baseline,1,0.919,0,1
adlb,17501,10052,1750110052,CREAT,Creatinine (mg/dL) in Serum,1.935,mg/dL,Visit 2,2,0.919,1.016,2.105549510337323
adlb,17501,10052,1750110052,CREAT,Creatinine (mg/dL) in Serum,2.953,mg/dL,Visit 3,3,0.919,2.034,3.213275299238302
adlb,17501,10052,1750110052,GGT,Gamma Glutamyl Transferase (U/L) in Serum,42.39,U/L,Baseline,1,42.39,0,1
adlb,17501,10052,1750110052,GGT,Gamma Glutamyl Transferase (U/L) in Serum,43.406,U/L,Visit 2,2,42.39,1.0159999999999982,1.0239679169615474
adlb,17501,10052,1750110052,GGT,Gamma Glutamyl Transferase (U/L) in Serum,44.424,U/L,Visit 3,3,42.39,2.033999999999999,1.0479830148619957
adlb,17501,10052,1750110052,HB,Hemoglobin (g/dL) in Blood,14.009,g/dL,Baseline,1,14.009,0,1
adlb,17501,10052,1750110052,HB,Hemoglobin (g/dL) in Blood,15.025,g/dL,Visit 2,2,14.009,1.016,1.07252480548219
adlb,17501,10052,1750110052,HB,Hemoglobin (g/dL) in Blood,16.043,g/dL,Visit 3,3,14.009,2.033999999999999,1.1451923763295024
adlb,17501,10052,1750110052,HCT,Hematocrit (%) in Blood - Calculated,44.779,%,Baseline,1,44.779,0,1
adlb,17501,10052,1750110052,HCT,Hematocrit (%) in Blood - Calculated,45.795,%,Visit 2,2,44.779,1.0159999999999982,1.02268920699435
adlb,17501,10052,1750110052,HCT,Hematocrit (%) in Blood - Calculated,46.813,%,Visit 3,3,44.779,2.033999999999999,1.045423077781996
adlb,17501,10052,1750110052,HDL,HDL Cholesterol (mg/dL) in Serum,31.404,mg/dL,Baseline,1,31.404,0,1
adlb,17501,10052,1750110052,HDL,HDL Cholesterol (mg/dL) in Serum,32.42,mg/dL,Visit 2,2,31.404,1.0160000000000018,1.0323525665520317
adlb,17501,10052,1750110052,HDL,HDL Cholesterol (mg/dL) in Serum,33.438,mg/dL,Visit 3,3,31.404,2.0340000000000025,1.0647688192586933
adlb,17501,10052,1750110052,LDL,LDL Cholesterol (mg/dL) in Serum,57.468,mg/dL,Baseline,1,57.468,0,1
adlb,17501,10052,1750110052,LDL,LDL Cholesterol (mg/dL) in Serum,58.484,mg/dL,Visit 2,2,57.468,1.0159999999999982,1.017679404190158
adlb,17501,10052,1750110052,LDL,LDL Cholesterol (mg/dL) in Serum,59.502,mg/dL,Visit 3,3,57.468,2.033999999999999,1.0353936103570682
adlb,17501,10052,1750110052,MAGNES,Magnesium (mg/dL) in Serum,2.185,mg/dL,Baseline,1,2.185,0,1
adlb,17501,10052,1750110052,MAGNES,Magnesium (mg/dL) in Serum,4.219,mg/dL,Visit 3,3,2.185,2.0340000000000003,1.930892448512586
adlb,17501,10052,1750110052,POTASS,Potassium (mmol/L) in Serum,4.634,mmol/L,Baseline,1,4.634,0,1
adlb,17501,10052,1750110052,POTASS,Potassium (mmol/L) in Serum,5.65,mmol/L,Visit 2,2,4.634,1.016,1.2192490289167026
adlb,17501,10052,1750110052,POTASS,Potassium (mmol/L) in Serum,6.668,mmol/L,Visit 3,3,4.634,2.034,1.4389296504100129
adlb,17501,10052,1750110052,SODIUM,Sodium (mmol/L) in Serum,137.713,mmol/L,Baseline,1,137.713,0,1
adlb,17501,10052,1750110052,SODIUM,Sodium (mmol/L) in Serum,138.729,mmol/L,Visit 2,2,137.713,1.0160000000000196,1.0073776622395854
adlb,17501,10052,1750110052,SODIUM,Sodium (mmol/L) in Serum,139.747,mmol/L,Visit 3,3,137.713,2.0340000000000202,1.0147698474363351
adlb,17501,10052,1750110052,URICAC,Urate (mg/dL) in Serum,11.756,mg/dL,Baseline,1,11.756,0,1
adlb,17501,10052,1750110052,URICAC,Urate (mg/dL) in Serum,12.772,mg/dL,Visit 2,2,11.756,1.016,1.086423953725757
adlb,17501,10052,1750110052,URICAC,Urate (mg/dL) in Serum,13.79,mg/dL,Visit 3,3,11.756,2.033999999999999,1.173018033344675
adlb,17501,10053,1750110053,CALCIUM,Calcium (mg/dL) in Serum,10.114,mg/dL,Baseline,1,10.114,0,1
adlb,17501,10053,1750110053,CALCIUM,Calcium (mg/dL) in Serum,11.13,mg/dL,Visit 2,2,10.114,1.016,1.1004548151077713
adlb,17501,10053,1750110053,CALCIUM,Calcium (mg/dL) in Serum,12.148,mg/dL,Visit 3,3,10.114,2.033999999999999,1.2011073759145738
adlb,17501,10053,1750110053,CREAT,Creatinine (mg/dL) in Serum,1.132,mg/dL,Baseline,1,1.132,0,1
adlb,17501,10053,1750110053,CREAT,Creatinine (mg/dL) in Serum,2.148,mg/dL,Visit 2,2,1.132,1.0160000000000002,1.8975265017667848
adlb,17501,10053,1750110053,CREAT,Creatinine (mg/dL) in Serum,3.166,mg/dL,Visit 3,3,1.132,2.034,2.796819787985866
adlb,17501,10053,1750110053,GGT,Gamma Glutamyl Transferase (U/L) in Serum,47.71,U/L,Baseline,1,47.71,0,1
adlb,17501,10053,1750110053,GGT,Gamma Glutamyl Transferase (U/L) in Serum,48.726,U/L,Visit 2,2,47.71,1.0159999999999982,1.0212953259274784
adlb,17501,10053,1750110053,GGT,Gamma Glutamyl Transferase (U/L) in Serum,49.744,U/L,Visit 3,3,47.71,2.033999999999999,1.042632571787885
adlb,17501,10053,1750110053,HB,Hemoglobin (g/dL) in Blood,13.064,g/dL,Baseline,1,13.064,0,1
adlb,17501,10053,1750110053,HB,Hemoglobin (g/dL) in Blood,14.08,g/dL,Visit 2,2,13.064,1.016,1.0777709736680956
adlb,17501,10053,1750110053,HB,Hemoglobin (g/dL) in Blood,15.098,g/dL,Visit 3,3,13.064,2.0340000000000007,1.1556950398040418
adlb,17501,10053,1750110053,HCT,Hematocrit (%) in Blood - Calculated,38.019,%,Baseline,1,38.019,0,1
adlb,17501,10053,1750110053,HCT,Hematocrit (%) in Blood - Calculated,39.035,%,Visit 2,2,38.019,1.0159999999999982,1.0267234803650807
adlb,17501,10053,1750110053,HCT,Hematocrit (%) in Blood - Calculated,40.053,%,Visit 3,3,38.019,2.033999999999999,1.0534995660064703
adlb,17501,10053,1750110053,HDL,HDL Cholesterol (mg/dL) in Serum,49.865,mg/dL,Baseline,1,49.865,0,1
adlb,17501,10053,1750110053,HDL,HDL Cholesterol (mg/dL) in Serum,50.881,mg/dL,Visit 2,2,49.865,1.0159999999999982,1.0203750125338413
adlb,17501,10053,1750110053,HDL,HDL Cholesterol (mg/dL) in Serum,51.899,mg/dL,Visit 3,3,49.865,2.033999999999999,1.0407901333600722
adlb,17501,10053,1750110053,LDL,LDL Cholesterol (mg/dL) in Serum,255.75,mg/dL,Baseline,1,255.75,0,1
adlb,17501,10053,1750110053,LDL,LDL Cholesterol (mg/dL) in Serum,256.766,mg/dL,Visit 2,2,255.75,1.0160000000000196,1.0039726295210167
adlb,17501,10053,1750110053,LDL,LDL Cholesterol (mg/dL) in Serum,257.784,mg/dL,Visit 3,3,255.75,2.033999999999992,1.0079530791788855
adlb,17501,10053,1750110053,MAGNES,Magnesium (mg/dL) in Serum,2.673,mg/dL,Baseline,1,2.673,0,1
adlb,17501,10053,1750110053,MAGNES,Magnesium (mg/dL) in Serum,3.689,mg/dL,Visit 2,2,2.673,1.016,1.380097268986158
adlb,17501,10053,1750110053,MAGNES,Magnesium (mg/dL) in Serum,4.707,mg/dL,Visit 3,3,2.673,2.034,1.7609427609427608
adlb,17501,10053,1750110053,POTASS,Potassium (mmol/L) in Serum,4.551,mmol/L,Baseline,1,4.551,0,1
adlb,17501,10053,1750110053,POTASS,Potassium (mmol/L) in Serum,5.567,mmol/L,Visit 2,2,4.551,1.016,1.2232476378817843
adlb,17501,10053,1750110053,POTASS,Potassium (mmol/L) in Serum,6.585,mmol/L,Visit 3,3,4.551,2.034,1.4469347396176664
adlb,17501,10053,1750110053,SODIUM,Sodium (mmol/L) in Serum,141.319,mmol/L,Baseline,1,141.319,0,1
adlb,17501,10053,1750110053,SODIUM,Sodium (mmol/L) in Serum,142.335,mmol/L,Visit 2,2,141.319,1.0160000000000196,1.0071894083598103
adlb,17501,10053,1750110053,SODIUM,Sodium (mmol/L) in Serum,143.353,mmol/L,Visit 3,3,141.319,2.0340000000000202,1.0143929690982814
adlb,17501,10053,1750110053,URICAC,Urate (mg/dL) in Serum,7.113,mg/dL,Baseline,1,7.113,0,1
adlb,17501,10053,1750110053,URICAC,Urate (mg/dL) in Serum,8.129,mg/dL,Visit 2,2,7.113,1.0159999999999991,1.142837058906228
adlb,17501,10053,1750110053,URICAC,Urate (mg/dL) in Serum,9.147,mg/dL,Visit 3,3,7.113,2.034,1.2859552931252636
adlb,17501,10054,1750110054,CALCIUM,Calcium (mg/dL) in Serum,9.06,mg/dL,Baseline,1,9.06,0,1
adlb,17501,10054,1750110054,CALCIUM,Calcium (mg/dL) in Serum,11.094,mg/dL,Visit 3,3,9.06,2.033999999999999,1.224503311258278
adlb,17501,10054,1750110054,CREAT,Creatinine (mg/dL) in Serum,0.915,mg/dL,Baseline,1,0.915,0,1
adlb,17501,10054,1750110054,CREAT,Creatinine (mg/dL) in Serum,1.931,mg/dL,Visit 2,2,0.915,1.016,2.110382513661202
adlb,17501,10054,1750110054,CREAT,Creatinine (mg/dL) in Serum,2.949,mg/dL,Visit 3,3,0.915,2.034,3.222950819672131
adlb,17501,10054,1750110054,GGT,Gamma Glutamyl Transferase (U/L) in Serum,11.086,U/L,Baseline,1,11.086,0,1
adlb,17501,10054,1750110054,GGT,Gamma Glutamyl Transferase (U/L) in Serum,12.102,U/L,Visit 2,2,11.086,1.016,1.091647122496843
adlb,17501,10054,1750110054,GGT,Gamma Glutamyl Transferase (U/L) in Serum,13.12,U/L,Visit 3,3,11.086,2.033999999999999,1.183474652715136
adlb,17501,10054,1750110054,HB,Hemoglobin (g/dL) in Blood,11.862,g/dL,Baseline,1,11.862,0,1
adlb,17501,10054,1750110054,HB,Hemoglobin (g/dL) in Blood,12.878,g/dL,Visit 2,2,11.862,1.016,1.0856516607654696
adlb,17501,10054,1750110054,HB,Hemoglobin (g/dL) in Blood,13.896,g/dL,Visit 3,3,11.862,2.0340000000000007,1.1714719271623673
adlb,17501,10054,1750110054,HCT,Hematocrit (%) in Blood - Calculated,37.674,%,Baseline,1,37.674,0,1
adlb,17501,10054,1750110054,HCT,Hematocrit (%) in Blood - Calculated,38.69,%,Visit 2,2,37.674,1.0159999999999982,1.0269682008812444
adlb,17501,10054,1750110054,HCT,Hematocrit (%) in Blood - Calculated,39.708,%,Visit 3,3,37.674,2.033999999999999,1.0539894887720975
adlb,17501,10054,1750110054,HDL,HDL Cholesterol (mg/dL) in Serum,30.188,mg/dL,Baseline,1,30.188,0,1
adlb,17501,10054,1750110054,HDL,HDL Cholesterol (mg/dL) in Serum,31.204,mg/dL,Visit 2,2,30.188,1.0160000000000018,1.0336557572545384
adlb,17501,10054,1750110054,LDL,LDL Cholesterol (mg/dL) in Serum,69.829,mg/dL,Baseline,1,69.829,0,1
adlb,17501,10054,1750110054,LDL,LDL Cholesterol (mg/dL) in Serum,70.845,mg/dL,Visit 2,2,69.829,1.0160000000000053,1.0145498288676624
adlb,17501,10054,1750110054,LDL,LDL Cholesterol (mg/dL) in Serum,71.863,mg/dL,Visit 3,3,69.829,2.034000000000006,1.0291282991307338
adlb,17501,10054,1750110054,MAGNES,Magnesium (mg/dL) in Serum,2.033,mg/dL,Baseline,1,2.033,0,1
adlb,17501,10054,1750110054,MAGNES,Magnesium (mg/dL) in Serum,3.049,mg/dL,Visit 2,2,2.033,1.016,1.499754058042302
adlb,17501,10054,1750110054,POTASS,Potassium (mmol/L) in Serum,4.985,mmol/L,Baseline,1,4.985,0,1
adlb,17501,10054,1750110054,POTASS,Potassium (mmol/L) in Serum,6.001,mmol/L,Visit 2,2,4.985,1.016,1.2038114343029087
adlb,17501,10054,1750110054,POTASS,Potassium (mmol/L) in Serum,7.019,mmol/L,Visit 3,3,4.985,2.034,1.40802407221665
adlb,17501,10054,1750110054,SODIUM,Sodium (mmol/L) in Serum,136.14,mmol/L,Baseline,1,136.14,0,1
adlb,17501,10054,1750110054,SODIUM,Sodium (mmol/L) in Serum,137.156,mmol/L,Visit 2,2,136.14,1.0160000000000196,1.0074629058322317
adlb,17501,10054,1750110054,SODIUM,Sodium (mmol/L) in Serum,138.174,mmol/L,Visit 3,3,136.14,2.0340000000000202,1.0149405024239755
adlb,17501,10054,1750110054,URICAC,Urate (mg/dL) in Serum,5.851,mg/dL,Baseline,1,5.851,0,1
adlb,17501,10054,1750110054,URICAC,Urate (mg/dL) in Serum,6.867,mg/dL,Visit 2,2,5.851,1.016,1.1736455306785165
adlb,17501,10054,1750110054,URICAC,Urate (mg/dL) in Serum,7.884,mg/dL,Visit 3,3,5.851,2.0330000000000004,1.3474619723124253
adlb,17501,10055,1750110055,CALCIUM,Calcium (mg/dL) in Serum,9.534,mg/dL,Baseline,1,9.534,0,1
adlb,17501,10055,1750110055,CALCIUM,Calcium (mg/dL) in Serum,10.55,mg/dL,Visit 2,2,9.534,1.016,1.1065659744073841
adlb,17501,10055,1750110055,CALCIUM,Calcium (mg/dL) in Serum,11.568,mg/dL,Visit 3,3,9.534,2.033999999999999,1.21334172435494
adlb,17501,10055,1750110055,CREAT,Creatinine (mg/dL) in Serum,0.876,mg/dL,Baseline,1,0.876,0,1
adlb,17501,10055,1750110055,CREAT,Creatinine (mg/dL) in Serum,1.892,mg/dL,Visit 2,2,0.876,1.016,2.1598173515981736
adlb,17501,10055,1750110055,CREAT,Creatinine (mg/dL) in Serum,2.91,mg/dL,Visit 3,3,0.876,2.0340000000000003,3.3219178082191783
adlb,17501,10055,1750110055,GGT,Gamma Glutamyl Transferase (U/L) in Serum,26.783,U/L,Baseline,1,26.783,0,1
adlb,17501,10055,1750110055,GGT,Gamma Glutamyl Transferase (U/L) in Serum,27.798,U/L,Visit 2,2,26.783,1.014999999999997,1.037897173580256
adlb,17501,10055,1750110055,GGT,Gamma Glutamyl Transferase (U/L) in Serum,28.816,U/L,Visit 3,3,26.783,2.0329999999999977,1.0759063585109956
adlb,17501,10055,1750110055,HB,Hemoglobin (g/dL) in Blood,14.819,g/dL,Baseline,1,14.819,0,1
adlb,17501,10055,1750110055,HB,Hemoglobin (g/dL) in Blood,15.835,g/dL,Visit 2,2,14.819,1.016,1.068560631621567
adlb,17501,10055,1750110055,HB,Hemoglobin (g/dL) in Blood,16.853,g/dL,Visit 3,3,14.819,2.0340000000000007,1.1372562251164047
adlb,17501,10055,1750110055,HCT,Hematocrit (%) in Blood - Calculated,44.578,%,Baseline,1,44.578,0,1
adlb,17501,10055,1750110055,HCT,Hematocrit (%) in Blood - Calculated,45.594,%,Visit 2,2,44.578,1.0159999999999982,1.0227915115079187
adlb,17501,10055,1750110055,HCT,Hematocrit (%) in Blood - Calculated,46.612,%,Visit 3,3,44.578,2.033999999999999,1.045627888195971
adlb,17501,10055,1750110055,HDL,HDL Cholesterol (mg/dL) in Serum,76.505,mg/dL,Baseline,1,76.505,0,1
adlb,17501,10055,1750110055,HDL,HDL Cholesterol (mg/dL) in Serum,77.521,mg/dL,Visit 2,2,76.505,1.0160000000000053,1.013280177766159
adlb,17501,10055,1750110055,HDL,HDL Cholesterol (mg/dL) in Serum,78.539,mg/dL,Visit 3,3,76.505,2.034000000000006,1.0265864976145351
adlb,17501,10055,1750110055,LDL,LDL Cholesterol (mg/dL) in Serum,101.59,mg/dL,Baseline,1,101.59,0,1
adlb,17501,10055,1750110055,LDL,LDL Cholesterol (mg/dL) in Serum,102.606,mg/dL,Visit 2,2,101.59,1.0159999999999911,1.010000984348853
adlb,17501,10055,1750110055,LDL,LDL Cholesterol (mg/dL) in Serum,103.624,mg/dL,Visit 3,3,101.59,2.033999999999992,1.020021655674771
adlb,17501,10055,1750110055,MAGNES,Magnesium (mg/dL) in Serum,2.127,mg/dL,Baseline,1,2.127,0,1
adlb,17501,10055,1750110055,MAGNES,Magnesium (mg/dL) in Serum,3.143,mg/dL,Visit 2,2,2.127,1.016,1.4776680771039024
adlb,17501,10055,1750110055,MAGNES,Magnesium (mg/dL) in Serum,4.161,mg/dL,Visit 3,3,2.127,2.034,1.9562764456981665
adlb,17501,10055,1750110055,POTASS,Potassium (mmol/L) in Serum,5.119,mmol/L,Baseline,1,5.119,0,1
adlb,17501,10055,1750110055,POTASS,Potassium (mmol/L) in Serum,6.135,mmol/L,Visit 2,2,5.119,1.016,1.1984762648954874
adlb,17501,10055,1750110055,POTASS,Potassium (mmol/L) in Serum,7.153,mmol/L,Visit 3,3,5.119,2.034,1.3973432310998242
adlb,17501,10055,1750110055,SODIUM,Sodium (mmol/L) in Serum,139.118,mmol/L,Baseline,1,139.118,0,1
adlb,17501,10055,1750110055,SODIUM,Sodium (mmol/L) in Serum,140.134,mmol/L,Visit 2,2,139.118,1.0159999999999911,1.0073031527192742
adlb,17501,10055,1750110055,SODIUM,Sodium (mmol/L) in Serum,141.152,mmol/L,Visit 3,3,139.118,2.033999999999992,1.014620681723429
adlb,17501,10055,1750110055,URICAC,Urate (mg/dL) in Serum,4.356,mg/dL,Baseline,1,4.356,0,1
adlb,17501,10055,1750110055,URICAC,Urate (mg/dL) in Serum,5.372,mg/dL,Visit 2,2,4.356,1.016,1.2332415059687787
adlb,17501,10055,1750110055,URICAC,Urate (mg/dL) in Serum,6.39,mg/dL,Visit 3,3,4.356,2.034,1.4669421487603305
adlb,17501,10056,1750110056,CALCIUM,Calcium (mg/dL) in Serum,9.825,mg/dL,Baseline,1,9.825,0,1
adlb,17501,10056,1750110056,CALCIUM,Calcium (mg/dL) in Serum,10.841,mg/dL,Visit 2,2,9.825,1.016,1.1034096692111959
adlb,17501,10056,1750110056,CALCIUM,Calcium (mg/dL) in Serum,11.859,mg/dL,Visit 3,3,9.825,2.0340000000000007,1.2070229007633588
adlb,17501,10056,1750110056,CREAT,Creatinine (mg/dL) in Serum,0.723,mg/dL,Baseline,1,0.723,0,1
adlb,17501,10056,1750110056,CREAT,Creatinine (mg/dL) in Serum,1.739,mg/dL,Visit 2,2,0.723,1.016,2.4052558782849243
adlb,17501,10056,1750110056,CREAT,Creatinine (mg/dL) in Serum,2.757,mg/dL,Visit 3,3,0.723,2.0340000000000003,3.8132780082987554
adlb,17501,10056,1750110056,GGT,Gamma Glutamyl Transferase (U/L) in Serum,23.276,U/L,Baseline,1,23.276,0,1
adlb,17501,10056,1750110056,GGT,Gamma Glutamyl Transferase (U/L) in Serum,24.292,U/L,Visit 2,2,23.276,1.0160000000000018,1.043650111703042
adlb,17501,10056,1750110056,GGT,Gamma Glutamyl Transferase (U/L) in Serum,25.31,U/L,Visit 3,3,23.276,2.033999999999999,1.0873861488228218
adlb,17501,10056,1750110056,HB,Hemoglobin (g/dL) in Blood,13.931,g/dL,Baseline,1,13.931,0,1
adlb,17501,10056,1750110056,HB,Hemoglobin (g/dL) in Blood,14.947,g/dL,Visit 2,2,13.931,1.016,1.0729308735912713
adlb,17501,10056,1750110056,HB,Hemoglobin (g/dL) in Blood,15.965,g/dL,Visit 3,3,13.931,2.0340000000000007,1.1460053118943365
adlb,17501,10056,1750110056,HCT,Hematocrit (%) in Blood - Calculated,41.322,%,Baseline,1,41.322,0,1
adlb,17501,10056,1750110056,HCT,Hematocrit (%) in Blood - Calculated,42.338,%,Visit 2,2,41.322,1.0159999999999982,1.0245873868641402
adlb,17501,10056,1750110056,HCT,Hematocrit (%) in Blood - Calculated,43.356,%,Visit 3,3,41.322,2.033999999999999,1.049223174096123
adlb,17501,10056,1750110056,HDL,HDL Cholesterol (mg/dL) in Serum,82.778,mg/dL,Baseline,1,82.778,0,1
adlb,17501,10056,1750110056,HDL,HDL Cholesterol (mg/dL) in Serum,83.794,mg/dL,Visit 2,2,82.778,1.0159999999999911,1.012273792553577
adlb,17501,10056,1750110056,HDL,HDL Cholesterol (mg/dL) in Serum,84.812,mg/dL,Visit 3,3,82.778,2.033999999999992,1.0245717461161177
adlb,17501,10056,1750110056,LDL,LDL Cholesterol (mg/dL) in Serum,98.292,mg/dL,Baseline,1,98.292,0,1
adlb,17501,10056,1750110056,LDL,LDL Cholesterol (mg/dL) in Serum,99.308,mg/dL,Visit 2,2,98.292,1.0160000000000053,1.0103365482440076
adlb,17501,10056,1750110056,LDL,LDL Cholesterol (mg/dL) in Serum,100.326,mg/dL,Visit 3,3,98.292,2.033999999999992,1.0206934440239286
adlb,17501,10056,1750110056,MAGNES,Magnesium (mg/dL) in Serum,2.161,mg/dL,Baseline,1,2.161,0,1
adlb,17501,10056,1750110056,MAGNES,Magnesium (mg/dL) in Serum,3.177,mg/dL,Visit 2,2,2.161,1.016,1.4701527070800555
adlb,17501,10056,1750110056,MAGNES,Magnesium (mg/dL) in Serum,4.195,mg/dL,Visit 3,3,2.161,2.0340000000000003,1.941230911614993
adlb,17501,10056,1750110056,POTASS,Potassium (mmol/L) in Serum,4.043,mmol/L,Baseline,1,4.043,0,1
adlb,17501,10056,1750110056,POTASS,Potassium (mmol/L) in Serum,5.059,mmol/L,Visit 2,2,4.043,1.016,1.2512985406876083
adlb,17501,10056,1750110056,POTASS,Potassium (mmol/L) in Serum,6.077,mmol/L,Visit 3,3,4.043,2.034,1.5030917635419243
adlb,17501,10056,1750110056,SODIUM,Sodium (mmol/L) in Serum,138.064,mmol/L,Baseline,1,138.064,0,1
adlb,17501,10056,1750110056,SODIUM,Sodium (mmol/L) in Serum,139.08,mmol/L,Visit 2,2,138.064,1.0160000000000196,1.007358906014602
adlb,17501,10056,1750110056,SODIUM,Sodium (mmol/L) in Serum,140.098,mmol/L,Visit 3,3,138.064,2.0340000000000202,1.0147322980646658
adlb,17501,10056,1750110056,URICAC,Urate (mg/dL) in Serum,7.25,mg/dL,Baseline,1,7.25,0,1
adlb,17501,10056,1750110056,URICAC,Urate (mg/dL) in Serum,8.266,mg/dL,Visit 2,2,7.25,1.016,1.1401379310344828
adlb,17501,10056,1750110056,URICAC,Urate (mg/dL) in Serum,9.284,mg/dL,Visit 3,3,7.25,2.0340000000000007,1.2805517241379312
adlb,17501,10058,1750110058,CALCIUM,Calcium (mg/dL) in Serum,9.277,mg/dL,Baseline,1,9.277,0,1
adlb,17501,10058,1750110058,CALCIUM,Calcium (mg/dL) in Serum,10.293,mg/dL,Visit 2,2,9.277,1.016,1.10951816319931
adlb,17501,10058,1750110058,CALCIUM,Calcium (mg/dL) in Serum,11.311,mg/dL,Visit 3,3,9.277,2.0340000000000007,1.219251913334052
adlb,17501,10058,1750110058,CREAT,Creatinine (mg/dL) in Serum,1,mg/dL,Baseline,1,1,0,1
adlb,17501,10058,1750110058,CREAT,Creatinine (mg/dL) in Serum,2.016,mg/dL,Visit 2,2,1,1.016,2.016
adlb,17501,10058,1750110058,CREAT,Creatinine (mg/dL) in Serum,3.034,mg/dL,Visit 3,3,1,2.034,3.034
adlb,17501,10058,1750110058,GGT,Gamma Glutamyl Transferase (U/L) in Serum,14.85,U/L,Baseline,1,14.85,0,1
adlb,17501,10058,1750110058,GGT,Gamma Glutamyl Transferase (U/L) in Serum,15.866,U/L,Visit 2,2,14.85,1.016,1.0684175084175085
adlb,17501,10058,1750110058,GGT,Gamma Glutamyl Transferase (U/L) in Serum,16.884,U/L,Visit 3,3,14.85,2.0340000000000007,1.136969696969697
adlb,17501,10058,1750110058,HB,Hemoglobin (g/dL) in Blood,12.267,g/dL,Baseline,1,12.267,0,1
adlb,17501,10058,1750110058,HB,Hemoglobin (g/dL) in Blood,13.283,g/dL,Visit 2,2,12.267,1.016,1.0828238363087959
adlb,17501,10058,1750110058,HB,Hemoglobin (g/dL) in Blood,14.301,g/dL,Visit 3,3,12.267,2.0340000000000007,1.165810711665444
adlb,17501,10058,1750110058,HCT,Hematocrit (%) in Blood - Calculated,38.457,%,Baseline,1,38.457,0,1
