ADSNAME,STUDYID,SUBJID,UASR,USUBJID,ITTFL,TRT01P,TRT01PN,TRT01A,TRT01AN,RANDDT,AGE,AGEGR01,AGEGR01N,SEX,SEXN,RACE,RACEN
ADSL,17501,10001,1750110001/85/WHITE/M,1750110001,Y,TRT,2,TRT,2,1910-05-21,85,>=75,3,M,1,WHITE,1
ADSL,17501,10002,1750110002/90/WHITE/F,1750110002,Y,PLC,1,PLC,1,1911-02-04,90,>=75,3,F,2,WHITE,1
ADSL,17501,10003,1750110003/62/NA/F,1750110003,Y,TRT,2,TRT,2,1910-11-16,62,60 - <75,2,F,2,,
ADSL,17501,10004,1750110004/86/ASIAN/F,1750110004,Y,TRT,2,TRT,2,1911-06-24,86,>=75,3,F,2,ASIAN,3
ADSL,17501,10005,1750110005/76/WHITE/F,1750110005,Y,PLC,1,PLC,1,1910-12-26,76,>=75,3,F,2,WHITE,1
ADSL,17501,10006,1750110006/47/WHITE/M,1750110006,Y,PLC,1,PLC,1,1912-02-14,47,< 60,1,M,1,WHITE,1
ADSL,17501,10007,1750110007/53/WHITE/M,1750110007,Y,TRT,2,TRT,2,1912-02-11,53,< 60,1,M,1,WHITE,1
ADSL,17501,10008,1750110008/75/WHITE/M,1750110008,Y,TRT,2,TRT,2,1911-05-12,75,>=75,3,M,1,WHITE,1
ADSL,17501,10009,1750110009/77/WHITE/F,1750110009,Y,PLC,1,PLC,1,1910-12-08,77,>=75,3,F,2,WHITE,1
ADSL,17501,10010,1750110010/88/BLACK/M,1750110010,Y,PLC,1,PLC,1,1910-01-12,88,>=75,3,M,1,BLACK,2
ADSL,17501,10011,1750110011/83/BLACK/M,1750110011,Y,TRT,2,TRT,2,1910-07-02,83,>=75,3,M,1,BLACK,2
ADSL,17501,10012,1750110012/49/WHITE/F,1750110012,Y,PLC,1,PLC,1,1912-07-03,49,< 60,1,F,2,WHITE,1
ADSL,17501,10013,1750110013/60/WHITE/F,1750110013,Y,TRT,2,TRT,2,1910-01-28,60,60 - <75,2,F,2,WHITE,1
ADSL,17501,10014,1750110014/64/WHITE/M,1750110014,Y,PLC,1,PLC,1,1910-09-09,64,60 - <75,2,M,1,WHITE,1
ADSL,17501,10015,1750110015/81/WHITE/M,1750110015,Y,PLC,1,PLC,1,1911-09-02,81,>=75,3,M,1,WHITE,1
ADSL,17501,10016,1750110016/59/WHITE/F,1750110016,,TRT,2,TRT,2,1910-08-06,59,< 60,1,F,2,WHITE,1
ADSL,17501,10017,1750110017/52/WHITE/F,1750110017,Y,PLC,1,PLC,1,1912-04-17,52,< 60,1,F,2,WHITE,1
ADSL,17501,10018,1750110018/80/WHITE/M,1750110018,Y,PLC,1,PLC,1,1911-03-06,80,>=75,3,M,1,WHITE,1
ADSL,17501,10019,1750110019/62/NA/M,1750110019,Y,TRT,2,TRT,2,1911-03-16,62,60 - <75,2,M,1,,
ADSL,17501,10020,1750110020/48/WHITE/F,1750110020,,PLC,1,PLC,1,1912-08-10,48,< 60,1,F,2,WHITE,1
ADSL,17501,10021,1750110021/52/BLACK/M,1750110021,Y,TRT,2,TRT,2,1912-01-13,52,< 60,1,M,1,BLACK,2
ADSL,17501,10022,1750110022/64/WHITE/M,1750110022,Y,PLC,1,PLC,1,1911-01-30,64,60 - <75,2,M,1,WHITE,1
ADSL,17501,10023,1750110023/83/WHITE/M,1750110023,Y,TRT,2,TRT,2,1911-02-05,83,>=75,3,M,1,WHITE,1
ADSL,17501,10024,1750110024/83/WHITE/M,1750110024,Y,PLC,1,PLC,1,1911-08-02,83,>=75,3,M,1,WHITE,1
ADSL,17501,10025,1750110025/46/WHITE/F,1750110025,Y,TRT,2,TRT,2,1912-05-12,46,< 60,1,F,2,WHITE,1
ADSL,17501,10026,1750110026/82/WHITE/F,1750110026,Y,PLC,1,PLC,1,1912-05-17,82,>=75,3,F,2,WHITE,1
ADSL,17501,10027,1750110027/53/WHITE/M,1750110027,Y,TRT,2,TRT,2,1911-03-09,53,< 60,1,M,1,WHITE,1
ADSL,17501,10028,1750110028/66/WHITE/M,1750110028,Y,PLC,1,PLC,1,1912-04-15,66,60 - <75,2,M,1,WHITE,1
ADSL,17501,10029,1750110029/56/WHITE/M,1750110029,Y,TRT,2,TRT,2,1912-08-02,56,< 60,1,M,1,WHITE,1
ADSL,17501,10030,1750110030/72/WHITE/F,1750110030,Y,PLC,1,PLC,1,1910-09-09,72,60 - <75,2,F,2,WHITE,1
ADSL,17501,10031,1750110031/48/NA/F,1750110031,Y,PLC,1,PLC,1,1911-02-16,48,< 60,1,F,2,,
ADSL,17501,10032,1750110032/77/WHITE/M,1750110032,Y,PLC,1,PLC,1,1911-09-12,77,>=75,3,M,1,WHITE,1
ADSL,17501,10033,1750110033/77/NA/F,1750110033,Y,TRT,2,TRT,2,1911-07-10,77,>=75,3,F,2,,
ADSL,17501,10034,1750110034/69/WHITE/M,1750110034,Y,PLC,1,PLC,1,1911-09-30,69,60 - <75,2,M,1,WHITE,1
ADSL,17501,10035,1750110035/91/WHITE/F,1750110035,,PLC,1,PLC,1,1912-04-24,91,>=75,3,F,2,WHITE,1
ADSL,17501,10036,1750110036/60/WHITE/F,1750110036,Y,PLC,1,PLC,1,1912-07-19,60,60 - <75,2,F,2,WHITE,1
ADSL,17501,10037,1750110037/65/WHITE/M,1750110037,Y,PLC,1,PLC,1,1912-03-08,65,60 - <75,2,M,1,WHITE,1
ADSL,17501,10038,1750110038/59/WHITE/M,1750110038,Y,PLC,1,PLC,1,1910-08-01,59,< 60,1,M,1,WHITE,1
ADSL,17501,10039,1750110039/71/WHITE/F,1750110039,Y,PLC,1,PLC,1,1910-10-13,71,60 - <75,2,F,2,WHITE,1
ADSL,17501,10040,1750110040/72/WHITE/F,1750110040,Y,TRT,2,TRT,2,1912-02-20,72,60 - <75,2,F,2,WHITE,1
ADSL,17501,10041,1750110041/63/WHITE/F,1750110041,Y,PLC,1,PLC,1,1912-07-19,63,60 - <75,2,F,2,WHITE,1
ADSL,17501,10042,1750110042/55/WHITE/F,1750110042,Y,PLC,1,PLC,1,1911-03-16,55,< 60,1,F,2,WHITE,1
ADSL,17501,10043,1750110043/70/WHITE/M,1750110043,Y,PLC,1,PLC,1,1912-01-19,70,60 - <75,2,M,1,WHITE,1
ADSL,17501,10044,1750110044/64/WHITE/M,1750110044,Y,PLC,1,PLC,1,1912-02-17,64,60 - <75,2,M,1,WHITE,1
ADSL,17501,10045,1750110045/45/ASIAN/M,1750110045,Y,TRT,2,TRT,2,1910-08-10,45,< 60,1,M,1,ASIAN,3
ADSL,17501,10046,1750110046/47/ASIAN/F,1750110046,Y,PLC,1,PLC,1,1909-12-20,47,< 60,1,F,2,ASIAN,3
ADSL,17501,10047,1750110047/84/BLACK/F,1750110047,Y,TRT,2,TRT,2,1910-04-30,84,>=75,3,F,2,BLACK,2
ADSL,17501,10048,1750110048/76/WHITE/F,1750110048,Y,PLC,1,PLC,1,1910-12-09,76,>=75,3,F,2,WHITE,1
ADSL,17501,10049,1750110049/84/WHITE/F,1750110049,Y,TRT,2,TRT,2,1911-07-15,84,>=75,3,F,2,WHITE,1
ADSL,17501,10050,1750110050/48/NA/F,1750110050,Y,TRT,2,TRT,2,1911-07-07,48,< 60,1,F,2,,
ADSL,17501,10051,1750110051/45/BLACK/F,1750110051,Y,TRT,2,TRT,2,1910-07-25,45,< 60,1,F,2,BLACK,2
ADSL,17501,10052,1750110052/47/WHITE/F,1750110052,Y,PLC,1,PLC,1,1910-04-22,47,< 60,1,F,2,WHITE,1
ADSL,17501,10053,1750110053/68/WHITE/M,1750110053,Y,PLC,1,PLC,1,1910-02-15,68,60 - <75,2,M,1,WHITE,1
ADSL,17501,10054,1750110054/85/WHITE/M,1750110054,Y,TRT,2,TRT,2,1911-06-25,85,>=75,3,M,1,WHITE,1
ADSL,17501,10055,1750110055/75/WHITE/F,1750110055,Y,TRT,2,TRT,2,1911-01-27,75,>=75,3,F,2,WHITE,1
ADSL,17501,10056,1750110056/60/WHITE/M,1750110056,Y,PLC,1,PLC,1,1912-05-12,60,60 - <75,2,M,1,WHITE,1
ADSL,17501,10057,1750110057/73/NA/M,1750110057,,TRT,2,TRT,2,1911-11-30,73,60 - <75,2,M,1,,
ADSL,17501,10058,1750110058/46/WHITE/M,1750110058,Y,PLC,1,PLC,1,1911-03-22,46,< 60,1,M,1,WHITE,1
ADSL,17501,10059,1750110059/54/NA/M,1750110059,Y,TRT,2,TRT,2,1911-05-10,54,< 60,1,M,1,,
ADSL,17501,10060,1750110060/61/WHITE/F,1750110060,Y,TRT,2,TRT,2,1912-03-18,61,60 - <75,2,F,2,WHITE,1
ADSL,17501,10061,1750110061/57/WHITE/M,1750110061,Y,TRT,2,TRT,2,1912-06-23,57,< 60,1,M,1,WHITE,1
ADSL,17501,10062,1750110062/92/WHITE/F,1750110062,Y,PLC,1,PLC,1,1911-12-24,92,>=75,3,F,2,WHITE,1
ADSL,17501,10063,1750110063/58/BLACK/M,1750110063,Y,TRT,2,TRT,2,1910-06-21,58,< 60,1,M,1,BLACK,2
ADSL,17501,10064,1750110064/87/WHITE/F,1750110064,Y,TRT,2,TRT,2,1912-02-22,87,>=75,3,F,2,WHITE,1
ADSL,17501,10065,1750110065/83/WHITE/F,1750110065,,TRT,2,TRT,2,1909-12-26,83,>=75,3,F,2,WHITE,1
ADSL,17501,10066,1750110066/58/WHITE/F,1750110066,Y,TRT,2,TRT,2,1912-04-27,58,< 60,1,F,2,WHITE,1
ADSL,17501,10067,1750110067/60/WHITE/F,1750110067,Y,PLC,1,PLC,1,1911-06-24,60,60 - <75,2,F,2,WHITE,1
ADSL,17501,10068,1750110068/50/WHITE/F,1750110068,,PLC,1,PLC,1,1912-08-24,50,< 60,1,F,2,WHITE,1
ADSL,17501,10069,1750110069/82/NA/M,1750110069,Y,TRT,2,TRT,2,1911-07-31,82,>=75,3,M,1,,
ADSL,17501,10070,1750110070/85/WHITE/M,1750110070,Y,PLC,1,PLC,1,1912-06-04,85,>=75,3,M,1,WHITE,1
ADSL,17501,10071,1750110071/53/WHITE/F,1750110071,Y,PLC,1,PLC,1,1911-05-06,53,< 60,1,F,2,WHITE,1
ADSL,17501,10072,1750110072/61/WHITE/M,1750110072,Y,TRT,2,TRT,2,1910-06-03,61,60 - <75,2,M,1,WHITE,1
ADSL,17501,10073,1750110073/80/WHITE/F,1750110073,Y,PLC,1,PLC,1,1911-01-21,80,>=75,3,F,2,WHITE,1
ADSL,17501,10074,1750110074/67/ASIAN/M,1750110074,Y,TRT,2,TRT,2,1912-04-08,67,60 - <75,2,M,1,ASIAN,3
ADSL,17501,10075,1750110075/76/WHITE/F,1750110075,Y,PLC,1,PLC,1,1912-05-21,76,>=75,3,F,2,WHITE,1
ADSL,17501,10076,1750110076/58/WHITE/M,1750110076,Y,TRT,2,TRT,2,1911-07-18,58,< 60,1,M,1,WHITE,1
ADSL,17501,10077,1750110077/83/WHITE/M,1750110077,Y,TRT,2,TRT,2,1912-01-08,83,>=75,3,M,1,WHITE,1
ADSL,17501,10078,1750110078/56/WHITE/F,1750110078,,TRT,2,TRT,2,1910-04-28,56,< 60,1,F,2,WHITE,1
ADSL,17501,10079,1750110079/71/WHITE/M,1750110079,Y,TRT,2,TRT,2,1912-07-14,71,60 - <75,2,M,1,WHITE,1
ADSL,17501,10080,1750110080/91/ASIAN/F,1750110080,Y,PLC,1,PLC,1,1910-07-08,91,>=75,3,F,2,ASIAN,3
ADSL,17501,10081,1750110081/46/WHITE/M,1750110081,Y,TRT,2,TRT,2,1912-09-03,46,< 60,1,M,1,WHITE,1
ADSL,17501,10082,1750110082/81/ASIAN/M,1750110082,Y,TRT,2,TRT,2,1911-04-03,81,>=75,3,M,1,ASIAN,3
ADSL,17501,10083,1750110083/48/WHITE/F,1750110083,Y,PLC,1,PLC,1,1910-11-08,48,< 60,1,F,2,WHITE,1
ADSL,17501,10084,1750110084/68/WHITE/F,1750110084,Y,TRT,2,TRT,2,1912-06-30,68,60 - <75,2,F,2,WHITE,1
ADSL,17501,10085,1750110085/46/WHITE/F,1750110085,Y,PLC,1,PLC,1,1912-05-14,46,< 60,1,F,2,WHITE,1
ADSL,17501,10086,1750110086/74/WHITE/F,1750110086,Y,TRT,2,TRT,2,1910-11-18,74,60 - <75,2,F,2,WHITE,1
ADSL,17501,10087,1750110087/88/WHITE/M,1750110087,Y,TRT,2,TRT,2,1910-02-08,88,>=75,3,M,1,WHITE,1
ADSL,17501,10088,1750110088/47/ASIAN/M,1750110088,Y,TRT,2,TRT,2,1911-08-12,47,< 60,1,M,1,ASIAN,3
ADSL,17501,10089,1750110089/51/BLACK/M,1750110089,Y,PLC,1,PLC,1,1910-05-16,51,< 60,1,M,1,BLACK,2
ADSL,17501,10090,1750110090/60/WHITE/F,1750110090,Y,TRT,2,TRT,2,1912-04-19,60,60 - <75,2,F,2,WHITE,1
ADSL,17501,10091,1750110091/76/NA/M,1750110091,Y,TRT,2,TRT,2,1911-09-24,76,>=75,3,M,1,,
ADSL,17501,10092,1750110092/88/WHITE/M,1750110092,Y,PLC,1,PLC,1,1911-06-04,88,>=75,3,M,1,WHITE,1
ADSL,17501,10093,1750110093/54/WHITE/M,1750110093,Y,TRT,2,TRT,2,1910-06-17,54,< 60,1,M,1,WHITE,1
ADSL,17501,10094,1750110094/47/WHITE/M,1750110094,Y,TRT,2,TRT,2,1911-02-07,47,< 60,1,M,1,WHITE,1
ADSL,17501,10095,1750110095/45/ASIAN/M,1750110095,Y,TRT,2,TRT,2,1911-05-13,45,< 60,1,M,1,ASIAN,3
ADSL,17501,10096,1750110096/81/BLACK/F,1750110096,Y,PLC,1,PLC,1,1912-08-07,81,>=75,3,F,2,BLACK,2
ADSL,17501,10097,1750110097/90/ASIAN/F,1750110097,Y,PLC,1,PLC,1,1911-09-29,90,>=75,3,F,2,ASIAN,3
ADSL,17501,10098,1750110098/50/NA/M,1750110098,Y,PLC,1,PLC,1,1910-07-20,50,< 60,1,M,1,,
ADSL,17501,10099,1750110099/82/WHITE/F,1750110099,,PLC,1,PLC,1,1910-03-07,82,>=75,3,F,2,WHITE,1
ADSL,17501,10100,1750110100/57/WHITE/F,1750110100,Y,PLC,1,PLC,1,1912-08-16,57,< 60,1,F,2,WHITE,1
ADSL,17501,10101,1750110101/56/WHITE/F,1750110101,Y,TRT,2,TRT,2,1910-05-26,56,< 60,1,F,2,WHITE,1
ADSL,17501,10102,1750110102/50/NA/F,1750110102,Y,TRT,2,TRT,2,1911-03-19,50,< 60,1,F,2,,
ADSL,17501,10103,1750110103/67/NA/M,1750110103,Y,PLC,1,PLC,1,1912-04-06,67,60 - <75,2,M,1,,
ADSL,17501,10104,1750110104/50/WHITE/M,1750110104,Y,PLC,1,PLC,1,1910-08-06,50,< 60,1,M,1,WHITE,1
ADSL,17501,10105,1750110105/74/WHITE/F,1750110105,Y,TRT,2,TRT,2,1911-06-05,74,60 - <75,2,F,2,WHITE,1
ADSL,17501,10106,1750110106/66/WHITE/F,1750110106,Y,PLC,1,PLC,1,1911-07-30,66,60 - <75,2,F,2,WHITE,1
ADSL,17501,10107,1750110107/72/WHITE/F,1750110107,Y,TRT,2,TRT,2,1911-06-07,72,60 - <75,2,F,2,WHITE,1
ADSL,17501,10108,1750110108/82/WHITE/M,1750110108,Y,TRT,2,TRT,2,1910-08-30,82,>=75,3,M,1,WHITE,1
ADSL,17501,10109,1750110109/72/BLACK/F,1750110109,Y,PLC,1,PLC,1,1912-07-28,72,60 - <75,2,F,2,BLACK,2
ADSL,17501,10110,1750110110/72/WHITE/M,1750110110,Y,PLC,1,PLC,1,1911-07-19,72,60 - <75,2,M,1,WHITE,1
ADSL,17501,10111,1750110111/61/BLACK/F,1750110111,Y,TRT,2,TRT,2,1912-08-14,61,60 - <75,2,F,2,BLACK,2
ADSL,17501,10112,1750110112/74/ASIAN/M,1750110112,Y,TRT,2,TRT,2,1910-10-15,74,60 - <75,2,M,1,ASIAN,3
ADSL,17501,10113,1750110113/87/NA/M,1750110113,Y,PLC,1,PLC,1,1910-08-30,87,>=75,3,M,1,,
ADSL,17501,10114,1750110114/83/NA/F,1750110114,Y,TRT,2,TRT,2,1910-08-18,83,>=75,3,F,2,,
ADSL,17501,10115,1750110115/60/WHITE/M,1750110115,Y,TRT,2,TRT,2,1912-07-11,60,60 - <75,2,M,1,WHITE,1
ADSL,17501,10116,1750110116/74/WHITE/M,1750110116,Y,TRT,2,TRT,2,1910-05-12,74,60 - <75,2,M,1,WHITE,1
ADSL,17501,10117,1750110117/73/WHITE/F,1750110117,Y,TRT,2,TRT,2,1911-10-14,73,60 - <75,2,F,2,WHITE,1
ADSL,17501,10118,1750110118/72/WHITE/M,1750110118,Y,TRT,2,TRT,2,1910-07-21,72,60 - <75,2,M,1,WHITE,1
ADSL,17501,10119,1750110119/85/WHITE/M,1750110119,,PLC,1,PLC,1,1910-01-19,85,>=75,3,M,1,WHITE,1
ADSL,17501,10120,1750110120/48/BLACK/F,1750110120,,TRT,2,TRT,2,1911-05-01,48,< 60,1,F,2,BLACK,2
ADSL,17501,10121,1750110121/65/ASIAN/F,1750110121,,PLC,1,PLC,1,1910-09-11,65,60 - <75,2,F,2,ASIAN,3
ADSL,17501,10122,1750110122/59/WHITE/M,1750110122,Y,PLC,1,PLC,1,1912-07-02,59,< 60,1,M,1,WHITE,1
ADSL,17501,10123,1750110123/59/WHITE/F,1750110123,Y,TRT,2,TRT,2,1910-10-07,59,< 60,1,F,2,WHITE,1
ADSL,17501,10124,1750110124/73/WHITE/M,1750110124,Y,PLC,1,PLC,1,1911-11-25,73,60 - <75,2,M,1,WHITE,1
ADSL,17501,10125,1750110125/59/WHITE/F,1750110125,Y,TRT,2,TRT,2,1912-01-31,59,< 60,1,F,2,WHITE,1
ADSL,17501,10126,1750110126/72/WHITE/M,1750110126,Y,TRT,2,TRT,2,1910-12-16,72,60 - <75,2,M,1,WHITE,1
ADSL,17501,10127,1750110127/58/WHITE/M,1750110127,Y,PLC,1,PLC,1,1909-12-27,58,< 60,1,M,1,WHITE,1
ADSL,17501,10128,1750110128/86/WHITE/F,1750110128,Y,TRT,2,TRT,2,1910-05-10,86,>=75,3,F,2,WHITE,1
ADSL,17501,10129,1750110129/47/BLACK/M,1750110129,Y,TRT,2,TRT,2,1911-11-18,47,< 60,1,M,1,BLACK,2
ADSL,17501,10130,1750110130/50/WHITE/F,1750110130,Y,TRT,2,TRT,2,1911-09-26,50,< 60,1,F,2,WHITE,1
ADSL,17501,10131,1750110131/82/BLACK/F,1750110131,,PLC,1,PLC,1,1911-09-08,82,>=75,3,F,2,BLACK,2
ADSL,17501,10132,1750110132/58/WHITE/F,1750110132,Y,TRT,2,TRT,2,1911-07-23,58,< 60,1,F,2,WHITE,1
ADSL,17501,10133,1750110133/59/WHITE/F,1750110133,Y,TRT,2,TRT,2,1910-10-13,59,< 60,1,F,2,WHITE,1
ADSL,17501,10134,1750110134/63/WHITE/M,1750110134,Y,PLC,1,PLC,1,1910-10-02,63,60 - <75,2,M,1,WHITE,1
ADSL,17501,10135,1750110135/49/BLACK/M,1750110135,Y,TRT,2,TRT,2,1911-09-01,49,< 60,1,M,1,BLACK,2
ADSL,17501,10136,1750110136/72/WHITE/F,1750110136,Y,TRT,2,TRT,2,1910-04-13,72,60 - <75,2,F,2,WHITE,1
ADSL,17501,10137,1750110137/75/NA/M,1750110137,Y,TRT,2,TRT,2,1911-10-12,75,>=75,3,M,1,,
ADSL,17501,10138,1750110138/63/ASIAN/F,1750110138,Y,TRT,2,TRT,2,1910-10-30,63,60 - <75,2,F,2,ASIAN,3
ADSL,17501,10139,1750110139/89/ASIAN/M,1750110139,Y,TRT,2,TRT,2,1909-12-27,89,>=75,3,M,1,ASIAN,3
ADSL,17501,10140,1750110140/68/BLACK/F,1750110140,Y,PLC,1,PLC,1,1910-03-14,68,60 - <75,2,F,2,BLACK,2
ADSL,17501,10141,1750110141/68/WHITE/M,1750110141,Y,PLC,1,PLC,1,1910-05-07,68,60 - <75,2,M,1,WHITE,1
ADSL,17501,10142,1750110142/54/ASIAN/F,1750110142,Y,PLC,1,PLC,1,1912-08-01,54,< 60,1,F,2,ASIAN,3
ADSL,17501,10143,1750110143/74/ASIAN/M,1750110143,Y,TRT,2,TRT,2,1910-04-05,74,60 - <75,2,M,1,ASIAN,3
ADSL,17501,10144,1750110144/79/WHITE/M,1750110144,Y,TRT,2,TRT,2,1912-04-25,79,>=75,3,M,1,WHITE,1
ADSL,17501,10145,1750110145/69/WHITE/F,1750110145,Y,PLC,1,PLC,1,1911-04-18,69,60 - <75,2,F,2,WHITE,1
ADSL,17501,10146,1750110146/67/WHITE/F,1750110146,Y,TRT,2,TRT,2,1912-02-20,67,60 - <75,2,F,2,WHITE,1
ADSL,17501,10147,1750110147/86/WHITE/F,1750110147,Y,TRT,2,TRT,2,1910-06-21,86,>=75,3,F,2,WHITE,1
ADSL,17501,10148,1750110148/66/WHITE/M,1750110148,,TRT,2,TRT,2,1910-05-24,66,60 - <75,2,M,1,WHITE,1
ADSL,17501,10149,1750110149/86/WHITE/M,1750110149,Y,PLC,1,PLC,1,1912-08-06,86,>=75,3,M,1,WHITE,1
ADSL,17501,10150,1750110150/51/NA/M,1750110150,Y,TRT,2,TRT,2,1910-09-03,51,< 60,1,M,1,,
ADSL,17501,10151,1750110151/52/WHITE/F,1750110151,,TRT,2,TRT,2,1911-04-29,52,< 60,1,F,2,WHITE,1
ADSL,17501,10152,1750110152/48/WHITE/M,1750110152,Y,PLC,1,PLC,1,1910-03-14,48,< 60,1,M,1,WHITE,1
ADSL,17501,10153,1750110153/80/WHITE/M,1750110153,Y,PLC,1,PLC,1,1912-01-30,80,>=75,3,M,1,WHITE,1
ADSL,17501,10154,1750110154/64/ASIAN/M,1750110154,Y,TRT,2,TRT,2,1912-07-10,64,60 - <75,2,M,1,ASIAN,3
ADSL,17501,10155,1750110155/49/WHITE/M,1750110155,Y,PLC,1,PLC,1,1911-07-30,49,< 60,1,M,1,WHITE,1
ADSL,17501,10156,1750110156/68/WHITE/F,1750110156,Y,PLC,1,PLC,1,1912-06-17,68,60 - <75,2,F,2,WHITE,1
ADSL,17501,10157,1750110157/86/BLACK/F,1750110157,Y,PLC,1,PLC,1,1912-06-24,86,>=75,3,F,2,BLACK,2
ADSL,17501,10158,1750110158/88/BLACK/F,1750110158,Y,PLC,1,PLC,1,1911-07-26,88,>=75,3,F,2,BLACK,2
ADSL,17501,10159,1750110159/52/WHITE/F,1750110159,Y,PLC,1,PLC,1,1911-11-21,52,< 60,1,F,2,WHITE,1
ADSL,17501,10160,1750110160/71/WHITE/F,1750110160,Y,TRT,2,TRT,2,1910-03-04,71,60 - <75,2,F,2,WHITE,1
ADSL,17501,10161,1750110161/80/WHITE/F,1750110161,Y,PLC,1,PLC,1,1911-02-10,80,>=75,3,F,2,WHITE,1
ADSL,17501,10162,1750110162/46/WHITE/F,1750110162,Y,TRT,2,TRT,2,1912-01-16,46,< 60,1,F,2,WHITE,1
ADSL,17501,10163,1750110163/92/WHITE/F,1750110163,Y,PLC,1,PLC,1,1911-11-23,92,>=75,3,F,2,WHITE,1
ADSL,17501,10164,1750110164/91/BLACK/F,1750110164,Y,PLC,1,PLC,1,1911-04-03,91,>=75,3,F,2,BLACK,2
ADSL,17501,10165,1750110165/73/ASIAN/F,1750110165,Y,TRT,2,TRT,2,1910-11-18,73,60 - <75,2,F,2,ASIAN,3
ADSL,17501,10166,1750110166/87/WHITE/M,1750110166,Y,TRT,2,TRT,2,1911-12-22,87,>=75,3,M,1,WHITE,1
ADSL,17501,10167,1750110167/91/WHITE/F,1750110167,Y,PLC,1,PLC,1,1910-07-16,91,>=75,3,F,2,WHITE,1
ADSL,17501,10168,1750110168/84/WHITE/M,1750110168,Y,TRT,2,TRT,2,1912-02-13,84,>=75,3,M,1,WHITE,1
ADSL,17501,10169,1750110169/77/WHITE/M,1750110169,Y,PLC,1,PLC,1,1910-07-17,77,>=75,3,M,1,WHITE,1
ADSL,17501,10170,1750110170/64/WHITE/F,1750110170,Y,PLC,1,PLC,1,1912-03-07,64,60 - <75,2,F,2,WHITE,1
ADSL,17501,10171,1750110171/74/WHITE/F,1750110171,,TRT,2,TRT,2,1911-06-11,74,60 - <75,2,F,2,WHITE,1
ADSL,17501,10172,1750110172/61/WHITE/F,1750110172,Y,TRT,2,TRT,2,1910-07-11,61,60 - <75,2,F,2,WHITE,1
ADSL,17501,10173,1750110173/58/WHITE/M,1750110173,Y,PLC,1,PLC,1,1910-02-28,58,< 60,1,M,1,WHITE,1
ADSL,17501,10174,1750110174/54/WHITE/F,1750110174,,PLC,1,PLC,1,1912-05-23,54,< 60,1,F,2,WHITE,1
ADSL,17501,10175,1750110175/66/WHITE/F,1750110175,Y,TRT,2,TRT,2,1911-05-26,66,60 - <75,2,F,2,WHITE,1
ADSL,17501,10176,1750110176/68/WHITE/F,1750110176,Y,PLC,1,PLC,1,1911-08-03,68,60 - <75,2,F,2,WHITE,1
ADSL,17501,10177,1750110177/85/WHITE/F,1750110177,Y,TRT,2,TRT,2,1911-02-24,85,>=75,3,F,2,WHITE,1
ADSL,17501,10178,1750110178/77/WHITE/F,1750110178,,TRT,2,TRT,2,1912-03-06,77,>=75,3,F,2,WHITE,1
ADSL,17501,10179,1750110179/66/WHITE/M,1750110179,Y,TRT,2,TRT,2,1910-09-26,66,60 - <75,2,M,1,WHITE,1
ADSL,17501,10180,1750110180/59/WHITE/M,1750110180,Y,PLC,1,PLC,1,1911-02-09,59,< 60,1,M,1,WHITE,1
ADSL,17501,10181,1750110181/81/ASIAN/F,1750110181,Y,PLC,1,PLC,1,1912-04-29,81,>=75,3,F,2,ASIAN,3
ADSL,17501,10182,1750110182/83/WHITE/M,1750110182,Y,PLC,1,PLC,1,1912-07-13,83,>=75,3,M,1,WHITE,1
ADSL,17501,10183,1750110183/68/WHITE/F,1750110183,Y,TRT,2,TRT,2,1910-04-06,68,60 - <75,2,F,2,WHITE,1
ADSL,17501,10184,1750110184/84/WHITE/M,1750110184,Y,TRT,2,TRT,2,1912-06-11,84,>=75,3,M,1,WHITE,1
ADSL,17501,10185,1750110185/57/ASIAN/M,1750110185,Y,TRT,2,TRT,2,1910-01-26,57,< 60,1,M,1,ASIAN,3
ADSL,17501,10186,1750110186/92/BLACK/M,1750110186,Y,TRT,2,TRT,2,1910-04-10,92,>=75,3,M,1,BLACK,2
ADSL,17501,10187,1750110187/61/WHITE/M,1750110187,Y,TRT,2,TRT,2,1911-11-28,61,60 - <75,2,M,1,WHITE,1
ADSL,17501,10188,1750110188/74/WHITE/F,1750110188,,PLC,1,PLC,1,1911-11-12,74,60 - <75,2,F,2,WHITE,1
ADSL,17501,10189,1750110189/59/WHITE/M,1750110189,Y,TRT,2,TRT,2,1911-04-15,59,< 60,1,M,1,WHITE,1
ADSL,17501,10190,1750110190/53/WHITE/M,1750110190,Y,TRT,2,TRT,2,1912-05-28,53,< 60,1,M,1,WHITE,1
ADSL,17501,10191,1750110191/69/ASIAN/F,1750110191,Y,PLC,1,PLC,1,1912-03-05,69,60 - <75,2,F,2,ASIAN,3
ADSL,17501,10192,1750110192/56/WHITE/F,1750110192,Y,PLC,1,PLC,1,1910-02-03,56,< 60,1,F,2,WHITE,1
ADSL,17501,10193,1750110193/70/BLACK/M,1750110193,Y,PLC,1,PLC,1,1911-12-05,70,60 - <75,2,M,1,BLACK,2
ADSL,17501,10194,1750110194/81/WHITE/F,1750110194,Y,PLC,1,PLC,1,1910-03-27,81,>=75,3,F,2,WHITE,1
ADSL,17501,10195,1750110195/54/WHITE/M,1750110195,Y,PLC,1,PLC,1,1910-06-29,54,< 60,1,M,1,WHITE,1
ADSL,17501,10196,1750110196/61/WHITE/F,1750110196,Y,TRT,2,TRT,2,1912-04-26,61,60 - <75,2,F,2,WHITE,1
ADSL,17501,10197,1750110197/63/WHITE/M,1750110197,Y,PLC,1,PLC,1,1912-04-05,63,60 - <75,2,M,1,WHITE,1
ADSL,17501,10198,1750110198/86/BLACK/F,1750110198,Y,TRT,2,TRT,2,1911-02-03,86,>=75,3,F,2,BLACK,2
ADSL,17501,10199,1750110199/47/BLACK/M,1750110199,Y,TRT,2,TRT,2,1911-07-03,47,< 60,1,M,1,BLACK,2
ADSL,17501,10200,1750110200/79/WHITE/M,1750110200,Y,TRT,2,TRT,2,1911-09-24,79,>=75,3,M,1,WHITE,1
ADSL,17501,10201,1750110201/49/WHITE/M,1750110201,Y,TRT,2,TRT,2,1910-01-27,49,< 60,1,M,1,WHITE,1
ADSL,17501,10202,1750110202/57/WHITE/F,1750110202,Y,TRT,2,TRT,2,1911-08-03,57,< 60,1,F,2,WHITE,1
ADSL,17501,10203,1750110203/87/ASIAN/M,1750110203,Y,TRT,2,TRT,2,1911-12-18,87,>=75,3,M,1,ASIAN,3
ADSL,17501,10204,1750110204/49/WHITE/M,1750110204,,TRT,2,TRT,2,1912-08-02,49,< 60,1,M,1,WHITE,1
ADSL,17501,10205,1750110205/50/ASIAN/F,1750110205,Y,PLC,1,PLC,1,1911-08-13,50,< 60,1,F,2,ASIAN,3
ADSL,17501,10206,1750110206/57/WHITE/M,1750110206,Y,TRT,2,TRT,2,1912-07-07,57,< 60,1,M,1,WHITE,1
ADSL,17501,10207,1750110207/90/WHITE/F,1750110207,,TRT,2,TRT,2,1910-09-03,90,>=75,3,F,2,WHITE,1
ADSL,17501,10208,1750110208/67/WHITE/F,1750110208,Y,TRT,2,TRT,2,1911-12-22,67,60 - <75,2,F,2,WHITE,1
ADSL,17501,10209,1750110209/66/WHITE/M,1750110209,Y,PLC,1,PLC,1,1910-10-05,66,60 - <75,2,M,1,WHITE,1
ADSL,17501,10210,1750110210/60/WHITE/M,1750110210,Y,PLC,1,PLC,1,1911-11-16,60,60 - <75,2,M,1,WHITE,1
ADSL,17501,10211,1750110211/64/WHITE/F,1750110211,Y,TRT,2,TRT,2,1910-08-03,64,60 - <75,2,F,2,WHITE,1
ADSL,17501,10212,1750110212/89/WHITE/M,1750110212,,TRT,2,TRT,2,1911-09-20,89,>=75,3,M,1,WHITE,1
ADSL,17501,10213,1750110213/65/BLACK/F,1750110213,Y,PLC,1,PLC,1,1911-10-14,65,60 - <75,2,F,2,BLACK,2
ADSL,17501,10214,1750110214/75/WHITE/M,1750110214,Y,PLC,1,PLC,1,1911-01-03,75,>=75,3,M,1,WHITE,1
ADSL,17501,10215,1750110215/74/BLACK/F,1750110215,Y,PLC,1,PLC,1,1912-03-21,74,60 - <75,2,F,2,BLACK,2
ADSL,17501,10216,1750110216/61/WHITE/F,1750110216,Y,TRT,2,TRT,2,1910-03-09,61,60 - <75,2,F,2,WHITE,1
ADSL,17501,10217,1750110217/82/WHITE/M,1750110217,Y,TRT,2,TRT,2,1911-07-20,82,>=75,3,M,1,WHITE,1
ADSL,17501,10218,1750110218/49/WHITE/M,1750110218,Y,TRT,2,TRT,2,1910-03-01,49,< 60,1,M,1,WHITE,1
ADSL,17501,10219,1750110219/59/WHITE/F,1750110219,Y,PLC,1,PLC,1,1911-05-24,59,< 60,1,F,2,WHITE,1
ADSL,17501,10220,1750110220/86/WHITE/F,1750110220,Y,PLC,1,PLC,1,1911-06-04,86,>=75,3,F,2,WHITE,1
ADSL,17501,10221,1750110221/47/WHITE/M,1750110221,,PLC,1,PLC,1,1910-12-08,47,< 60,1,M,1,WHITE,1
ADSL,17501,10222,1750110222/46/WHITE/M,1750110222,Y,TRT,2,TRT,2,1910-09-01,46,< 60,1,M,1,WHITE,1
ADSL,17501,10223,1750110223/68/WHITE/M,1750110223,Y,PLC,1,PLC,1,1912-01-03,68,60 - <75,2,M,1,WHITE,1
ADSL,17501,10224,1750110224/82/BLACK/F,1750110224,Y,TRT,2,TRT,2,1910-01-03,82,>=75,3,F,2,BLACK,2
ADSL,17501,10225,1750110225/83/BLACK/M,1750110225,Y,PLC,1,PLC,1,1910-09-19,83,>=75,3,M,1,BLACK,2
ADSL,17501,10226,1750110226/58/WHITE/F,1750110226,Y,PLC,1,PLC,1,1910-09-07,58,< 60,1,F,2,WHITE,1
ADSL,17501,10227,1750110227/52/WHITE/F,1750110227,Y,PLC,1,PLC,1,1911-06-15,52,< 60,1,F,2,WHITE,1
ADSL,17501,10228,1750110228/87/WHITE/F,1750110228,Y,TRT,2,TRT,2,1911-12-20,87,>=75,3,F,2,WHITE,1
ADSL,17501,10229,1750110229/90/WHITE/M,1750110229,Y,PLC,1,PLC,1,1910-01-04,90,>=75,3,M,1,WHITE,1
ADSL,17501,10230,1750110230/61/WHITE/F,1750110230,Y,TRT,2,TRT,2,1912-09-01,61,60 - <75,2,F,2,WHITE,1
ADSL,17501,10231,1750110231/80/BLACK/F,1750110231,Y,PLC,1,PLC,1,1910-11-25,80,>=75,3,F,2,BLACK,2
ADSL,17501,10232,1750110232/62/WHITE/F,1750110232,Y,PLC,1,PLC,1,1912-03-08,62,60 - <75,2,F,2,WHITE,1
ADSL,17501,10233,1750110233/64/NA/F,1750110233,Y,TRT,2,TRT,2,1912-05-11,64,60 - <75,2,F,2,,
ADSL,17501,10234,1750110234/89/WHITE/M,1750110234,Y,PLC,1,PLC,1,1911-11-30,89,>=75,3,M,1,WHITE,1
ADSL,17501,10235,1750110235/84/WHITE/F,1750110235,Y,TRT,2,TRT,2,1911-07-22,84,>=75,3,F,2,WHITE,1
ADSL,17501,10236,1750110236/55/WHITE/F,1750110236,,TRT,2,TRT,2,1910-02-22,55,< 60,1,F,2,WHITE,1
ADSL,17501,10237,1750110237/58/NA/M,1750110237,Y,TRT,2,TRT,2,1912-03-11,58,< 60,1,M,1,,
ADSL,17501,10238,1750110238/55/NA/F,1750110238,Y,TRT,2,TRT,2,1911-03-11,55,< 60,1,F,2,,
ADSL,17501,10239,1750110239/55/WHITE/M,1750110239,Y,TRT,2,TRT,2,1910-12-07,55,< 60,1,M,1,WHITE,1
ADSL,17501,10240,1750110240/92/WHITE/F,1750110240,,TRT,2,TRT,2,1910-12-14,92,>=75,3,F,2,WHITE,1
ADSL,17501,10241,1750110241/68/BLACK/M,1750110241,Y,TRT,2,TRT,2,1910-02-04,68,60 - <75,2,M,1,BLACK,2
ADSL,17501,10242,1750110242/58/WHITE/F,1750110242,Y,TRT,2,TRT,2,1912-06-10,58,< 60,1,F,2,WHITE,1
ADSL,17501,10243,1750110243/67/ASIAN/F,1750110243,Y,PLC,1,PLC,1,1912-07-05,67,60 - <75,2,F,2,ASIAN,3
ADSL,17501,10244,1750110244/88/NA/M,1750110244,Y,TRT,2,TRT,2,1910-03-01,88,>=75,3,M,1,,
ADSL,17501,10245,1750110245/48/BLACK/M,1750110245,Y,PLC,1,PLC,1,1911-02-27,48,< 60,1,M,1,BLACK,2
ADSL,17501,10246,1750110246/70/WHITE/F,1750110246,,TRT,2,TRT,2,1911-09-10,70,60 - <75,2,F,2,WHITE,1
ADSL,17501,10247,1750110247/75/WHITE/M,1750110247,Y,TRT,2,TRT,2,1912-08-03,75,>=75,3,M,1,WHITE,1
ADSL,17501,10248,1750110248/46/ASIAN/F,1750110248,Y,TRT,2,TRT,2,1910-03-23,46,< 60,1,F,2,ASIAN,3
ADSL,17501,10249,1750110249/55/WHITE/M,1750110249,Y,PLC,1,PLC,1,1910-12-24,55,< 60,1,M,1,WHITE,1
ADSL,17501,10250,1750110250/59/WHITE/M,1750110250,Y,PLC,1,PLC,1,1911-10-23,59,< 60,1,M,1,WHITE,1
ADSL,17501,10251,1750110251/78/ASIAN/F,1750110251,Y,PLC,1,PLC,1,1911-01-11,78,>=75,3,F,2,ASIAN,3
ADSL,17501,10252,1750110252/74/WHITE/F,1750110252,,TRT,2,TRT,2,1911-08-20,74,60 - <75,2,F,2,WHITE,1
ADSL,17501,10253,1750110253/74/WHITE/F,1750110253,Y,PLC,1,PLC,1,1911-02-12,74,60 - <75,2,F,2,WHITE,1
ADSL,17501,10254,1750110254/74/WHITE/F,1750110254,Y,TRT,2,TRT,2,1911-08-13,74,60 - <75,2,F,2,WHITE,1
ADSL,17501,10255,1750110255/69/WHITE/F,1750110255,Y,TRT,2,TRT,2,1912-02-09,69,60 - <75,2,F,2,WHITE,1
ADSL,17501,10256,1750110256/65/WHITE/M,1750110256,,PLC,1,PLC,1,1911-02-15,65,60 - <75,2,M,1,WHITE,1
ADSL,17501,10257,1750110257/88/WHITE/M,1750110257,Y,TRT,2,TRT,2,1911-09-05,88,>=75,3,M,1,WHITE,1
ADSL,17501,10258,1750110258/86/WHITE/F,1750110258,Y,PLC,1,PLC,1,1910-06-12,86,>=75,3,F,2,WHITE,1
ADSL,17501,10259,1750110259/63/WHITE/F,1750110259,Y,PLC,1,PLC,1,1911-10-08,63,60 - <75,2,F,2,WHITE,1
ADSL,17501,10260,1750110260/73/WHITE/M,1750110260,Y,PLC,1,PLC,1,1910-01-05,73,60 - <75,2,M,1,WHITE,1
ADSL,17501,10261,1750110261/56/WHITE/M,1750110261,Y,PLC,1,PLC,1,1910-04-18,56,< 60,1,M,1,WHITE,1
ADSL,17501,10262,1750110262/82/WHITE/M,1750110262,Y,TRT,2,TRT,2,1912-03-10,82,>=75,3,M,1,WHITE,1
ADSL,17501,10263,1750110263/70/WHITE/M,1750110263,Y,PLC,1,PLC,1,1910-12-20,70,60 - <75,2,M,1,WHITE,1
ADSL,17501,10264,1750110264/67/ASIAN/F,1750110264,Y,TRT,2,TRT,2,1911-03-25,67,60 - <75,2,F,2,ASIAN,3
ADSL,17501,10265,1750110265/65/WHITE/F,1750110265,,TRT,2,TRT,2,1912-07-05,65,60 - <75,2,F,2,WHITE,1
ADSL,17501,10266,1750110266/72/ASIAN/M,1750110266,Y,PLC,1,PLC,1,1911-06-25,72,60 - <75,2,M,1,ASIAN,3
ADSL,17501,10267,1750110267/73/WHITE/M,1750110267,Y,PLC,1,PLC,1,1912-04-06,73,60 - <75,2,M,1,WHITE,1
ADSL,17501,10268,1750110268/61/ASIAN/M,1750110268,,PLC,1,PLC,1,1910-12-02,61,60 - <75,2,M,1,ASIAN,3
ADSL,17501,10269,1750110269/52/BLACK/F,1750110269,Y,TRT,2,TRT,2,1911-07-03,52,< 60,1,F,2,BLACK,2
ADSL,17501,10270,1750110270/50/WHITE/M,1750110270,Y,TRT,2,TRT,2,1912-05-17,50,< 60,1,M,1,WHITE,1
ADSL,17501,10271,1750110271/81/WHITE/M,1750110271,Y,TRT,2,TRT,2,1912-09-04,81,>=75,3,M,1,WHITE,1
ADSL,17501,10272,1750110272/60/BLACK/F,1750110272,Y,TRT,2,TRT,2,1912-08-22,60,60 - <75,2,F,2,BLACK,2
ADSL,17501,10273,1750110273/77/ASIAN/F,1750110273,Y,PLC,1,PLC,1,1912-06-15,77,>=75,3,F,2,ASIAN,3
ADSL,17501,10274,1750110274/69/ASIAN/F,1750110274,Y,PLC,1,PLC,1,1911-02-07,69,60 - <75,2,F,2,ASIAN,3
ADSL,17501,10275,1750110275/52/WHITE/M,1750110275,Y,TRT,2,TRT,2,1911-09-24,52,< 60,1,M,1,WHITE,1
ADSL,17501,10276,1750110276/57/WHITE/M,1750110276,Y,PLC,1,PLC,1,1911-09-08,57,< 60,1,M,1,WHITE,1
ADSL,17501,10277,1750110277/55/WHITE/F,1750110277,Y,TRT,2,TRT,2,1910-06-14,55,< 60,1,F,2,WHITE,1
ADSL,17501,10278,1750110278/45/BLACK/F,1750110278,Y,TRT,2,TRT,2,1911-03-21,45,< 60,1,F,2,BLACK,2
ADSL,17501,10279,1750110279/52/WHITE/M,1750110279,Y,TRT,2,TRT,2,1910-08-08,52,< 60,1,M,1,WHITE,1
ADSL,17501,10280,1750110280/72/WHITE/M,1750110280,Y,TRT,2,TRT,2,1911-09-14,72,60 - <75,2,M,1,WHITE,1
ADSL,17501,10281,1750110281/65/ASIAN/M,1750110281,Y,TRT,2,TRT,2,1910-12-02,65,60 - <75,2,M,1,ASIAN,3
ADSL,17501,10282,1750110282/45/WHITE/F,1750110282,Y,TRT,2,TRT,2,1910-09-21,45,< 60,1,F,2,WHITE,1
ADSL,17501,10283,1750110283/53/WHITE/M,1750110283,Y,TRT,2,TRT,2,1912-01-23,53,< 60,1,M,1,WHITE,1
ADSL,17501,10284,1750110284/72/WHITE/M,1750110284,Y,TRT,2,TRT,2,1911-09-27,72,60 - <75,2,M,1,WHITE,1
ADSL,17501,10285,1750110285/76/ASIAN/M,1750110285,Y,PLC,1,PLC,1,1910-02-02,76,>=75,3,M,1,ASIAN,3
ADSL,17501,10286,1750110286/52/WHITE/M,1750110286,Y,TRT,2,TRT,2,1910-10-29,52,< 60,1,M,1,WHITE,1
ADSL,17501,10287,1750110287/71/ASIAN/F,1750110287,Y,TRT,2,TRT,2,1911-02-19,71,60 - <75,2,F,2,ASIAN,3
ADSL,17501,10288,1750110288/82/WHITE/M,1750110288,Y,TRT,2,TRT,2,1910-07-20,82,>=75,3,M,1,WHITE,1
ADSL,17501,10289,1750110289/56/ASIAN/F,1750110289,Y,TRT,2,TRT,2,1911-08-16,56,< 60,1,F,2,ASIAN,3
ADSL,17501,10290,1750110290/56/WHITE/M,1750110290,Y,TRT,2,TRT,2,1912-08-11,56,< 60,1,M,1,WHITE,1
ADSL,17501,10291,1750110291/81/WHITE/M,1750110291,Y,PLC,1,PLC,1,1911-08-03,81,>=75,3,M,1,WHITE,1
ADSL,17501,10292,1750110292/92/WHITE/M,1750110292,,PLC,1,PLC,1,1911-10-25,92,>=75,3,M,1,WHITE,1
ADSL,17501,10293,1750110293/64/ASIAN/M,1750110293,Y,TRT,2,TRT,2,1910-07-13,64,60 - <75,2,M,1,ASIAN,3
ADSL,17501,10294,1750110294/68/ASIAN/F,1750110294,Y,PLC,1,PLC,1,1911-12-04,68,60 - <75,2,F,2,ASIAN,3
ADSL,17501,10295,1750110295/48/WHITE/M,1750110295,Y,TRT,2,TRT,2,1910-08-09,48,< 60,1,M,1,WHITE,1
ADSL,17501,10296,1750110296/48/WHITE/F,1750110296,Y,PLC,1,PLC,1,1912-07-06,48,< 60,1,F,2,WHITE,1
ADSL,17501,10297,1750110297/45/WHITE/F,1750110297,Y,TRT,2,TRT,2,1912-02-16,45,< 60,1,F,2,WHITE,1
ADSL,17501,10298,1750110298/62/WHITE/F,1750110298,Y,PLC,1,PLC,1,1910-07-05,62,60 - <75,2,F,2,WHITE,1
ADSL,17501,10299,1750110299/67/ASIAN/M,1750110299,Y,PLC,1,PLC,1,1911-05-28,67,60 - <75,2,M,1,ASIAN,3
ADSL,17501,10300,1750110300/62/ASIAN/M,1750110300,Y,PLC,1,PLC,1,1910-04-19,62,60 - <75,2,M,1,ASIAN,3
ADSL,17501,10301,1750110301/91/ASIAN/M,1750110301,Y,PLC,1,PLC,1,1911-12-23,91,>=75,3,M,1,ASIAN,3
ADSL,17501,10302,1750110302/71/WHITE/F,1750110302,Y,PLC,1,PLC,1,1910-01-26,71,60 - <75,2,F,2,WHITE,1
ADSL,17501,10303,1750110303/89/WHITE/F,1750110303,Y,PLC,1,PLC,1,1912-09-07,89,>=75,3,F,2,WHITE,1
ADSL,17501,10304,1750110304/76/WHITE/F,1750110304,,PLC,1,PLC,1,1911-04-06,76,>=75,3,F,2,WHITE,1
ADSL,17501,10305,1750110305/66/WHITE/M,1750110305,Y,PLC,1,PLC,1,1910-09-07,66,60 - <75,2,M,1,WHITE,1
ADSL,17501,10306,1750110306/83/ASIAN/F,1750110306,Y,TRT,2,TRT,2,1911-09-23,83,>=75,3,F,2,ASIAN,3
ADSL,17501,10307,1750110307/92/WHITE/F,1750110307,Y,PLC,1,PLC,1,1910-11-02,92,>=75,3,F,2,WHITE,1
ADSL,17501,10308,1750110308/65/WHITE/F,1750110308,Y,TRT,2,TRT,2,1912-05-19,65,60 - <75,2,F,2,WHITE,1
ADSL,17501,10309,1750110309/76/WHITE/F,1750110309,Y,PLC,1,PLC,1,1912-03-23,76,>=75,3,F,2,WHITE,1
ADSL,17501,10310,1750110310/46/WHITE/F,1750110310,Y,PLC,1,PLC,1,1910-09-04,46,< 60,1,F,2,WHITE,1
ADSL,17501,10311,1750110311/66/ASIAN/M,1750110311,Y,TRT,2,TRT,2,1912-02-20,66,60 - <75,2,M,1,ASIAN,3
ADSL,17501,10312,1750110312/61/WHITE/M,1750110312,Y,PLC,1,PLC,1,1910-01-05,61,60 - <75,2,M,1,WHITE,1
ADSL,17501,10313,1750110313/55/ASIAN/M,1750110313,Y,PLC,1,PLC,1,1911-09-15,55,< 60,1,M,1,ASIAN,3
ADSL,17501,10314,1750110314/91/WHITE/F,1750110314,Y,TRT,2,TRT,2,1910-09-28,91,>=75,3,F,2,WHITE,1
ADSL,17501,10315,1750110315/82/WHITE/M,1750110315,Y,PLC,1,PLC,1,1911-08-13,82,>=75,3,M,1,WHITE,1
ADSL,17501,10316,1750110316/85/NA/M,1750110316,Y,TRT,2,TRT,2,1912-06-06,85,>=75,3,M,1,,
ADSL,17501,10317,1750110317/45/WHITE/F,1750110317,Y,TRT,2,TRT,2,1910-11-15,45,< 60,1,F,2,WHITE,1
ADSL,17501,10318,1750110318/81/WHITE/M,1750110318,Y,PLC,1,PLC,1,1911-03-18,81,>=75,3,M,1,WHITE,1
ADSL,17501,10319,1750110319/47/WHITE/F,1750110319,Y,TRT,2,TRT,2,1910-01-26,47,< 60,1,F,2,WHITE,1
ADSL,17501,10320,1750110320/82/WHITE/F,1750110320,Y,TRT,2,TRT,2,1910-09-01,82,>=75,3,F,2,WHITE,1
